#timestamp,q_w,q_x,q_y,q_z,acc_x,acc_y,acc_z,av_x,av_y,av_z;
2536155994870,0,0,0,0,-0.0106510175392,-9.84527015686,-0.10091073066,0.00483989715576,-0.00129938137252,-2.68220956059E-05;
2536157969840,0.999983489513,0.00147383078001,0.00555256893858,9.92955392576E-06,-0.0268009901047,-9.84207439423,-0.089926213026,0.00263303564861,-0.00135749601759,-0.00353455613367;
2536161133960,0.999983549118,0.00147142726928,0.00554624758661,1.21371294881E-05,-0.036544136703,-9.86670398712,-0.116986364126,0.00505447434261,-0.0017628071364,-0.00193268060684;
2536163225540,0.999983608723,0.00146698055323,0.00553951459005,1.30087173602E-05,-0.0374933704734,-9.83321857452,-0.113044843078,0.00538528012112,-0.000685453298502,-0.00356137775816;
2536167317780,0.999983668327,0.00146267993841,0.00553199928254,1.90826649487E-05,-0.00960754416883,-9.83295631409,-0.0880492478609,0.00600516749546,-0.00484883692116,-0.00346749974415;
2536169146460,0.999983727932,0.00146213208791,0.00552379153669,1.83267584362E-05,-0.0153016122058,-9.83689594269,-0.0794405341148,0.00656694173813,0.000597536563873,-0.000435113935964;
2536171424490,0.999983727932,0.00146097491961,0.00551907578483,2.05838186957E-05,0.0115024605766,-9.80337238312,-0.072893537581,0.00376999401487,-0.00180602050386,-0.000935792922974;
2536173471850,0.999983727932,0.00145764858462,0.00551774632186,2.53984871961E-05,-0.0225908011198,-9.8066444397,-0.0869668200612,0.00105798256118,-0.00383853912354,-0.00268220878206;
2536177610230,0.999983727932,0.00145159754902,0.00551457284018,2.58631116594E-05,-0.0004417579039,-9.79438972473,-0.0651572272182,0.00253915786743,-0.00034868720104,-0.00484287785366;
2536179331170,0.999983727932,0.00144509947859,0.00551318563521,3.342772834E-05,-0.0244242716581,-9.78667163849,-0.0745142549276,0.00110119581223,-0.00602453947067,-0.00523179816082;
2536181092780,0.999983727932,0.00144132040441,0.00551039259881,3.68178334611E-05,-0.0124013405293,-9.79008674622,-0.0669826641679,0.00223070452921,-0.00269860029221,-0.00303834723309;
2536183814800,0.999983727932,0.00143904541619,0.00550757581368,3.97115945816E-05,-0.0414998270571,-9.80513095856,-0.055454403162,0.0022500755731,-0.00230818986893,-0.00183284317609;
2536186783330,0.999983787537,0.00143419881351,0.00550429290161,4.14789574279E-05,-0.0231064949185,-9.80587005615,-0.0294029545039,0.00413060188293,-0.00149160635192,-0.00155419122893;
2536188767050,0.999983787537,0.00143507297616,0.00550524285063,3.88789412682E-05,0.00541280955076,-9.79270362854,-0.0438756011426,-0.000756978988647,0.00207722187042,0.000710785447154;
2536190848680,0.999983847141,0.00143417087384,0.00549870962277,4.21062759415E-05,-0.00407111598179,-9.8061504364,-0.0438065156341,0.00522285699844,-0.00258535169996,-0.000736117421184;
2536192915080,0.999983847141,0.00143771537114,0.00549851823598,4.44316210633E-05,0.00552745675668,-9.80771160126,-0.0310622770339,0.000150501713506,-0.00187605619431,0.00282525992952;
2536197034180,0.999983787537,0.00143244117498,0.00550258671865,4.66588353447E-05,-0.0237204227597,-9.81802940369,-0.0557148233056,-0.00325739406981,-0.00175386690535,-0.00422894954681;
2536199161290,0.999983787537,0.00143093208317,0.00550242327154,4.89654485136E-05,-0.00931036006659,-9.80530929565,-0.0337986089289,0.000128150000819,-0.00183880340774,-0.00121742486954;
2536201182040,0.999983787537,0.00142817432061,0.00550121953711,4.94482956128E-05,-0.0223093871027,-9.84281921387,-0.0671566799283,0.00096261507133,-0.000375509262085,-0.00220835208893;
2536203220580,0.999983787537,0.00142264110036,0.00550133502111,4.92367507832E-05,-0.00955306738615,-9.83396148682,-0.0843130424619,-9.23871994019E-05,0.000193715110072,-0.00442564487457;
2536206417130,0.999983787537,0.00141623511445,0.00550774624571,5.40197579539E-05,-0.0180892683566,-9.84886169434,-0.0819992050529,-0.00513494061306,-0.00379085587338,-0.00514537189156;
2536208430790,0.999983787537,0.00141756597441,0.00550938164815,5.28449818376E-05,-0.0131747862324,-9.81123447418,-0.103696480393,-0.0013068318367,0.000935792922974,0.00106990349013;
2536211623360,0.999983787537,0.00141422904562,0.00551013601944,5.4049098253E-05,-0.00931042153388,-9.81645584106,-0.107046894729,-0.000604987319093,-0.000947713968344,-0.00267475889996;
2536213621420,0.999983787537,0.00141130294651,0.00551173416898,5.14001330885E-05,-0.00369120179676,-9.83007526398,-0.130005255342,-0.00127553951461,0.00213384628296,-0.00232905172743;
2536216838440,0.999983787537,0.0014073055936,0.00550748594105,5.33663878741E-05,-0.0211530532688,-9.82117176056,-0.15735027194,0.00339597440325,-0.00156015134417,-0.00320672942325;
2536218172080,0.999983847141,0.00140055525117,0.00550153013319,5.76923812332E-05,-0.018053708598,-9.7985162735,-0.126823276281,0.00475943041965,-0.00343769812025,-0.0054195523262;
2536222104400,0.999983847141,0.00139833427966,0.00549921439961,6.46621774649E-05,-0.0220590177923,-9.77740859985,-0.129165545106,0.00184476410504,-0.00556856393814,-0.00180751085281;
2536224259470,0.999983906746,0.00139768153895,0.00549254752696,6.64502003929E-05,-0.043123383075,-9.78268527985,-0.133264645934,0.00533163594082,-0.00143498182297,-0.000530481396709;
2536226345160,0.999983906746,0.00139771122485,0.00548974005505,6.57196651446E-05,-0.0104908961803,-9.7803478241,-0.122110754251,0.00224709510803,0.000581145344768,2.68220919679E-05;
2536228399100,0.999983906746,0.00139314960688,0.00548653770238,6.70441004331E-05,0.00491715036333,-9.79233455658,-0.118455223739,0.0025600194931,-0.00104308128357,-0.00365525507368;
2536231496490,0.999983966351,0.00139171211049,0.00547610782087,7.58292881073E-05,-0.0348835736513,-9.81526660919,-0.131491363049,0.00833422038704,-0.00703334901482,-0.0011891128961;
2536233587480,0.999984025955,0.00138955062721,0.00546816037968,8.20458153612E-05,-0.0343383550644,-9.80154418945,-0.116275668144,0.00635087536648,-0.00497251749039,-0.00175684702117;
2536235679960,0.99998408556,0.00138977286406,0.00546075915918,8.43906018417E-05,-0.0302776638418,-9.78806781769,-0.0801365226507,0.00591874262318,-0.00188499712385,0.000166893005371;
2536237780060,0.999984145164,0.00139105890412,0.00544974533841,8.57094055391E-05,0.00251986691728,-9.818400383,-0.0594837814569,0.00880956742913,-0.00107288372237,0.0010222196579;
2536241906710,0.999984145164,0.00139234622475,0.00544559722766,8.841426461E-05,0.000642273575068,-9.82467556,-0.0553091652691,0.00331550859846,-0.00217407941818,0.00101774930954;
2536243934950,0.999984204769,0.00139208079781,0.00543898576871,9.05131892068E-05,-0.0347621664405,-9.82334041595,-0.0545870736241,0.00528693245724,-0.00168532133102,-0.00022202731634;
2536246057820,0.999984204769,0.00139107415453,0.00543674174696,9.03478940018E-05,-0.027225503698,-9.82074737549,-0.070325165987,0.00179558992386,0.000134110465297,-0.000804662762675;
2536248721340,0.999984264374,0.00139146484435,0.00542736100033,9.31826143642E-05,-0.0103788636625,-9.81034755707,-0.0541813671589,0.00750124454498,-0.00227987766266,0.0002995133691;
2536251665110,0.999984264374,0.0013915480813,0.0054260827601,9.47673834162E-05,-0.0121728535742,-9.81915569305,-0.0386046692729,0.00102072942536,-0.00126957893372,5.96046447754E-05;
2536253715010,0.999984264374,0.00139517313801,0.00542516401038,9.82203200692E-05,-0.00399890728295,-9.80964851379,-0.0305353663862,0.00073164695641,-0.00277906609699,0.00288486503996;
2536255711240,0.999984264374,0.00139156077057,0.00542135396972,0.000101455174445,-0.0170774199069,-9.80650138855,-0.0565615966916,0.00304430676624,-0.00257641053759,-0.00290423608385;
2536257815680,0.999984264374,0.00138990511186,0.00542027084157,0.000102168596641,0.00376374949701,-9.79968261719,-0.0200834423304,0.000865757465363,-0.000564754009247,-0.00132769357879;
2536261987310,0.999984264374,0.0013853184646,0.00541956024244,0.000103708691313,-0.00927973631769,-9.81817817688,-0.0391045995057,0.000566244183574,-0.00121295452118,-0.00367611646652;
2536264102790,0.999984264374,0.00138784269802,0.00542392628267,0.000112090536277,-0.0359494537115,-9.77867126465,-0.0649706199765,-0.00350177334622,-0.00671148439869,0.0019833445549;
2536266130740,0.999984383583,0.00138306221925,0.00542681152001,0.000114404123451,-0.00270777544938,-9.79221439362,-0.0476210713387,-0.00231117010117,-0.00182688271161,-0.00383406947367;
2536268439580,0.999984383583,0.0013826219365,0.00542781921104,0.000121158242109,-0.0166926942766,-9.80262184143,-0.0608760640025,-0.000813603401184,-0.00540017988533,-0.000381469697459;
2536271500400,0.999984383583,0.00137950386852,0.00542890513316,0.00012635118037,-0.0187444612384,-9.79807949066,-0.081757068634,-0.000874698045664,-0.00413954211399,-0.00251680589281;
2536273543410,0.999984383583,0.0013792879181,0.00543350540102,0.000128199011669,-0.032295666635,-9.77124977112,-0.0854138731956,-0.00368207716383,-0.00147223449312,-0.000180304035894;
2536276690460,0.999984323978,0.00138605351094,0.0054356912151,0.000129361098516,-0.0222283098847,-9.81238460541,-0.0893961787224,-0.00174939632416,-0.000956654723268,0.00540763186291;
2536278765870,0.999984323978,0.00139147229493,0.00543841300532,0.000128450643388,-0.0268746688962,-9.80396270752,-0.072681620717,-0.00217556976713,0.000707805214915,0.00433921813965;
2536284178060,0.999984323978,0.0013936975738,0.00543872267008,0.000125596532598,-0.0126200551167,-9.81806564331,-0.0923336595297,-0.000244379072683,0.00227391719818,0.00179260992445;
2536285917900,0.999984323978,0.00139842450153,0.00544051220641,0.00012487109052,-0.00637515028939,-9.82332229614,-0.0923925414681,-0.00143051159102,0.000561773777008,0.00378489564173;
2536287846500,0.999984323978,0.00139708188362,0.00543876877055,0.000128632964334,-0.0137965083122,-9.79809761047,-0.120730817318,0.00139027833939,-0.00300556444563,-0.0010907651158;
2536289789030,0.999984323978,0.00139312073588,0.00543852522969,0.000129443942569,-0.0212665908039,-9.8364944458,-0.116581887007,0.00019371509552,-0.000631809234619,-0.00317245791666;
2536291780360,0.999984383583,0.00139648269396,0.00543302763253,0.0001316681155,-0.0286587290466,-9.82731723785,-0.124489426613,0.00439584255219,-0.00180006038863,0.00267922901548;
2536293856500,0.999984383583,0.0013952931622,0.00543339038268,0.000130771688418,-0.010919842869,-9.8429441452,-0.13756275177,-0.000289082468953,0.000722706376109,-0.000947713735513;
2536295907100,0.999984204769,0.00139210373163,0.00543516827747,0.000132125162054,-0.0301690064371,-9.83375930786,-0.148349180818,-0.00142455112655,-0.00106692314148,-0.00255703926086;
2536297961870,0.999984204769,0.00139307929203,0.0054305489175,0.000136038099299,-0.00222505116835,-9.82395553589,-0.119905404747,0.00369101809338,-0.00313967466354,0.000762939511333;
2536302227010,0.999984204769,0.00139342213515,0.0054258829914,0.000138678471558,-0.0345779508352,-9.82027816772,-0.154385596514,0.00372976087965,-0.00211894512177,0.000262260437012;
2536304193400,0.999984264374,0.00139206438325,0.00541617907584,0.000146339094499,-0.0403629280627,-9.79736709595,-0.147563382983,0.00775456475094,-0.00613331794739,-0.00112056743819;
2536306245270,0.999984383583,0.00139167835005,0.00540752336383,0.000152531225467,0.00120407913346,-9.82737064362,-0.113259881735,0.00682920217514,-0.00496208714321,-0.000302493601339;
2536308406840,0.999984443188,0.00138952443376,0.00540120527148,0.000153612578288,-0.0161107778549,-9.79342651367,-0.110669367015,0.00505298376083,-0.000862777233124,-0.0017285348149;
2536311494430,0.999984502792,0.00139015226159,0.00539181940258,0.00015749472368,-0.0232107006013,-9.78742408752,-0.0925252586603,0.0075042238459,-0.0031188132707,0.000484287709696;
2536313637540,0.999984562397,0.00138593651354,0.00538527639583,0.0001609952742,-0.0581454597414,-9.80554389954,-0.106629267335,0.0052303080447,-0.00278949737549,-0.00338852428831;
2536315629810,0.999984502792,0.00138597527985,0.00538264214993,0.000158754352015,-0.0589377246797,-9.80495834351,-0.0748298615217,0.00211000442505,0.0017896295758,4.02331388614E-05;
2536317671190,0.999984562397,0.00138518109452,0.00537230353802,0.000164885539562,-0.0298043303192,-9.82309055328,-0.0336402021348,0.00826418586075,-0.00491291377693,-0.000663101847749;
2536321862550,0.999984622002,0.00137820956297,0.00536635052413,0.00016409518139,-0.0374796614051,-9.81345844269,-0.039299774915,0.00476241111755,0.000655651150737,-0.00557452393696;
2536323872440,0.999984622002,0.0013762388844,0.00536220241338,0.000171953084646,-0.0220979508013,-9.79740619659,-0.0151356570423,0.00330954813398,-0.00628232955933,-0.00161081564147;
2536325928990,0.999984622002,0.00137278868351,0.00535685336217,0.000177913592779,-0.00525444466621,-9.83656692505,-0.0229916758835,0.00427216291428,-0.00475943135098,-0.00278651737608;
2536328038410,0.999984622002,0.00137089437339,0.00535681983456,0.000177580965101,-0.0313564799726,-9.84297370911,-0.0547521859407,2.68220901489E-05,0.000274181365967,-0.00151395809371;
2536332177990,0.999984622002,0.00137481815182,0.00535860145465,0.000178534697625,-0.0121590653434,-9.83923053741,-0.0434570349753,-0.00142604124267,-0.000777840614319,0.00313520431519;
2536334377220,0.999984622002,0.00138408259954,0.00536105129868,0.00018478425045,0.00102154409979,-9.84091186523,-0.0620968043804,-0.0019654633943,-0.00503659248352,0.00738501688465;
2536336310380,0.999984622002,0.00138352159411,0.00535999657586,0.000188129313756,-0.00950795412064,-9.83313941956,-0.0724108442664,0.000840425607748,-0.00267475866713,-0.00046342620044;
2536338408560,0.999984622002,0.00138708914164,0.00536376563832,0.000193224725081,-0.00624561356381,-9.84644317627,-0.0824955999851,-0.00302046607248,-0.00408738898113,0.00283271074295;
2536341493400,0.999984622002,0.00138673733454,0.0053643360734,0.000198148583877,-0.012528302148,-9.83199501038,-0.0895314365625,-0.000461936026113,-0.00393688678741,-0.000302493514027;
2536343644590,0.999984622002,0.00138610671274,0.00536337308586,0.000200683876756,-0.0509915985167,-9.8313035965,-0.115387395024,0.000767409917898,-0.00202655815519,-0.000515580177307;
2536345738230,0.999984622002,0.00137857988011,0.00536467274651,0.000202883020393,-0.0537589639425,-9.81040668488,-0.100101552904,-0.00104308128357,-0.00172555481549,-0.00603050040081;
2536349148630,0.999984622002,0.00137845892459,0.00536849303171,0.000204101539566,-0.0485218949616,-9.82096099854,-0.0987802371383,-0.00305771850981,-0.000970065651927,-0.000101327881566;
2536352064650,0.999984622002,0.00138259353116,0.00537300901487,0.000205592456041,-0.0472881756723,-9.80690574646,-0.112520694733,-0.003613532288,-0.00120550394058,0.00330209778622;
2536354268320,0.999984622002,0.00138264533598,0.00537325441837,0.000210033133044,-0.0338330790401,-9.77724170685,-0.105349861085,-0.000201165647013,-0.00355243659578,2.23517381528E-05;
2536356338510,0.999984562397,0.00138089002576,0.00537537364289,0.000207210498047,-0.0197897702456,-9.81895923615,-0.100833132863,-0.00169277191162,0.00226795696653,-0.00139176833909;
2536358398690,0.999984562397,0.00138506677467,0.00537769310176,0.00020360747294,-0.018159609288,-9.82152175903,-0.127492234111,-0.00185072433669,0.00286698364653,0.00335723115131;
2536362820620,0.999984562397,0.00138487375807,0.00537952361628,0.000207964112633,-0.0306396689266,-9.81284332275,-0.133997231722,-0.00146925461013,-0.003482401371,-0.000172853469849;
2536363279330,0.999984562397,0.00138378888369,0.00537544256076,0.00021078811551,-0.0501367263496,-9.80521011353,-0.17655813694,0.00326186488383,-0.00225901603699,-0.000880658801179;
2536366391850,0.999984562397,0.00138618552592,0.00537421088666,0.000216096552322,-0.0422609448433,-9.82741737366,-0.160111144185,0.000905990600586,-0.00425875233486,0.00192224991042;
2536368552850,0.999984562397,0.00138298003003,0.00536937732249,0.000219743014895,-0.0171095132828,-9.84780979156,-0.131321117282,0.00386238167994,-0.00290870689787,-0.00258088111877;
2536371933820,0.999984622002,0.00138394918758,0.00536162033677,0.000213615654502,-0.0216007065028,-9.83373832703,-0.147822037339,0.00621229456738,0.0048890709877,0.00080019235611;
2536373774270,0.999984681606,0.00138286955189,0.00534971291199,0.000215691179619,-0.0234096515924,-9.84577846527,-0.143090814352,0.00952333305031,-0.00166893028654,-0.000874698336702;
2536375809100,0.999984741211,0.00138053158298,0.00534557923675,0.000217558786971,-0.00575361633673,-9.84679603577,-0.0914594307542,0.00330507801846,-0.00148862635251,-0.00187903677579;
2536377867410,0.999984741211,0.00137819186784,0.00534016359597,0.000221838665311,-0.0154873710126,-9.84898376465,-0.112289793789,0.00432729721069,-0.00341981649399,-0.00189095747191;
2536381560750,0.999984800816,0.00137974810787,0.00532673718408,0.000222463786486,-0.0361330918968,-9.81850337982,-0.100122459233,0.0107407579198,-0.000521540641785,0.00123977661133;
2536383570770,0.999984800816,0.00137449463364,0.00532382167876,0.00022043507488,-0.0234585721046,-9.80532169342,-0.0769699662924,0.00233352184296,0.00164210831281,-0.00419467687607;
2536386174950,0.999984920025,0.00137271359563,0.00531617645174,0.000219129709876,-0.0454798527062,-9.80450057983,-0.0700604617596,0.00603646039963,0.00104308139998,-0.0013902784558;
2536388238590,0.99998497963,0.00136706512421,0.00530504481867,0.000217093664105,-0.0361465327442,-9.82003974915,-0.0497421137989,0.00890642218292,0.00164061784744,-0.00451207114384;
2536391308590,0.99998497963,0.00136977992952,0.00529991369694,0.000221235328354,-0.0169452615082,-9.83878993988,-0.041002355516,0.00410080002621,-0.00333040999249,0.00215321779251;
2536393346090,0.99998497963,0.0013656570809,0.00530011206865,0.000223885683226,-0.00590928317979,-9.81055450439,-0.0357786603272,-0.000162422642461,-0.00210255384445,-0.00330954813398;
2536398986770,0.999985039234,0.00136147357989,0.00529195880517,0.000224284158321,7.02401302988E-05,-9.81137180328,-0.00483488896862,0.00652223825455,-0.000309944181936,-0.00334978126921;
2536399202040,0.999985039234,0.00135828868952,0.00528727006167,0.000222722548642,-0.00592184951529,-9.80859947205,-0.0381086245179,0.00375211262144,0.00125765812118,-0.00254213809967;
2536400977460,0.999985039234,0.00135456561111,0.00528918020427,0.00022007933876,-0.0278873071074,-9.84603786469,-0.0381191186607,-0.00152587902267,0.00213235616684,-0.0029668211937;
2536403059870,0.999985039234,0.00135415361729,0.00529042538255,0.000220761212404,-0.0131585747004,-9.80143547058,-0.0380760170519,-0.000996887800284,-0.000542402267456,-0.000332295923727;
2536407195810,0.999988615513,-6.63816026645E-05,0.00475900946185,0.0001795834105,-0.00415246095508,-9.80315208435,-0.0537924692035,0.00124573730864,0.00147074495908,-0.00250488589518;
2536409288510,0.999988615513,-6.61243539071E-05,0.00476255267859,0.000183281197678,-0.0156453903764,-9.81849479675,-0.0557401925325,-0.00283420062624,-0.00295937038027,0.000192224950297;
2536413718380,0.999988615513,-6.8759007263E-05,0.00476456386968,0.000183181851753,-0.0302573665977,-9.79185676575,-0.0840342715383,-0.00160932575818,8.9406981715E-05,-0.00210702465847;
2536413922660,0.999988615513,-7.06512801116E-05,0.00476908264682,0.000188480538782,-0.0246636737138,-9.81600761414,-0.107490062714,-0.00361502193846,-0.00423192977905,-0.00153332960326;
2536416759030,0.999988555908,-7.38201561035E-05,0.00476969638839,0.000188795471331,-0.0121627468616,-9.81457233429,-0.104206942022,-0.000491738377605,-0.000239908724325,-0.00253617763519;
2536418813210,0.999988496304,-6.98547955835E-05,0.00478268926963,0.000189647311345,-0.00992481783032,-9.82925033569,-0.120036862791,-0.0103935599327,-0.000697374227457,0.00317096733488;
2536420881250,0.999988436699,-6.6456188506E-05,0.00479004718363,0.000190560007468,-0.0254405960441,-9.81178665161,-0.141711324453,-0.00588595913723,-0.000743567943573,0.00271648168564;
2536422943700,0.999988436699,-6.88297513989E-05,0.00479163881391,0.000186626144568,-0.015688309446,-9.82816791534,-0.131781518459,-0.00127404939849,0.00315606640652,-0.00188350689132;
2536427108510,0.999988496304,-6.19814381935E-05,0.00478587020189,0.000185863566003,-0.0205491762608,-9.83635902405,-0.129335865378,0.00461637880653,0.000584125577006,0.00548064755276;
2536429639730,0.999988496304,-6.78784126649E-05,0.00478540966287,0.000194845662918,-0.027238368988,-9.83662033081,-0.148364290595,0.0003680587688,-0.00716298958287,-0.00475198123604;
2536431636510,0.999988496304,-7.35145513318E-05,0.00478620221838,0.000197664718144,-0.0333755910397,-9.82537269592,-0.128326326609,-0.000634789466858,-0.00223368429579,-0.00451952265576;
2536433798640,0.999988496304,-7.71710328991E-05,0.00478487741202,0.00020343423239,-0.041038364172,-9.846824646,-0.138804599643,0.00105947256088,-0.00460147904232,-0.00294744968414;
2536435853420,0.999988555908,-7.56867666496E-05,0.00477650528774,0.000206912824069,-0.0271616503596,-9.81875228882,-0.11873473227,0.00669807288796,-0.0027880074922,0.00117272150237;
2536437910750,0.999988555908,-7.47585145291E-05,0.00477045541629,0.000207177072298,-0.0357631482184,-9.81829357147,-0.118273891509,0.00483989715576,-0.000214576721191,0.000740587885957;
2536442041530,0.999988555908,-7.53273998271E-05,0.00476435339078,0.000207532284549,-0.0467606335878,-9.80353546143,-0.11241389811,0.00488161947578,-0.00028163191746,-0.000457465619547;
2536444508840,0.999988555908,-7.82129063737E-05,0.00475832028314,0.000212303741137,-0.0209011044353,-9.78147506714,-0.10821916908,0.00482648657635,-0.00380575656891,-0.00232756161131;
2536446517260,0.999988675117,-7.8041193774E-05,0.00474923104048,0.00021236325847,-0.00531410844997,-9.81056880951,-0.0760857909918,0.00727176573128,-4.76837121823E-05,0.000135600581416;
2536450738660,0.999988734722,-7.45619472582E-05,0.00473861349747,0.000216158587136,-0.0225454084575,-9.81973552704,-0.0741003900766,0.00849515292794,-0.00304877781309,0.0027671456337;
2536450946850,0.999988794327,-7.35232824809E-05,0.00473212497309,0.000225935000344,-0.0283631198108,-9.81195735931,-0.0850113704801,0.0051915650256,-0.00782459974289,0.000792741775513;
2536452749010,0.999988794327,-6.92486646585E-05,0.00473156524822,0.000225473355385,-0.0213626865298,-9.80526161194,-0.0413546450436,0.000448525039246,0.000353157520294,0.0034213073086;
2536457449780,0.999988794327,-6.76234049024E-05,0.00472417520359,0.000230851161177,-0.00780433276668,-9.84405899048,-0.0391398258507,0.00591278122738,-0.00430792570114,0.00127851963043;
2536459449890,0.999988853931,-6.74135226291E-05,0.00471781613305,0.000231597528909,-0.0141304014251,-9.82720279694,-0.0480772703886,0.00508725689724,-0.000597536622081,0.000163912773132;
2536461569640,0.999988853931,-6.24034146313E-05,0.0047131436877,0.000233245038544,-0.0261932089925,-9.81143093109,-0.0474965535104,0.00373870134354,-0.0013366342755,0.00400096224621;
2536465245350,0.999988853931,-6.59219222143E-05,0.00470719952136,0.000238103049924,-0.0467802062631,-9.84138393402,-0.0707465261221,0.00475496100262,-0.00387281179428,-0.0028342010919;
2536467260450,0.999988853931,-6.80518569425E-05,0.00471108546481,0.000243650531047,-0.0352860093117,-9.82517623901,-0.0618263743818,-0.0031083826907,-0.00443011568859,-0.00172406469937;
2536469284410,0.999988853931,-6.96663046256E-05,0.00471529643983,0.000241599598667,-0.0145297441632,-9.82491970062,-0.0381761416793,-0.00336915277876,0.00164657866117,-0.00128298997879;
2536471318550,0.999988853931,-7.20092502888E-05,0.00471268640831,0.000240737237618,-0.00935963448137,-9.80947589874,-0.0457073040307,0.00208765291609,0.000698864459991,-0.00187158584595;
2536473446540,0.999988853931,-7.06322825863E-05,0.0047128717415,0.000247564836172,-0.0221340488642,-9.80547046661,-0.0228378549218,-0.000147521510371,-0.00546723604202,0.00107586395461;
2536476860590,0.999988794327,-7.11108659743E-05,0.00472005922347,0.000249155447818,-0.0194098372012,-9.80140590668,-0.0428475663066,-0.00575035717338,-0.00127106893342,-0.000387430220144;
2536478945740,0.999988794327,-7.3887691542E-05,0.00472600851208,0.000253897422226,-0.0154849216342,-9.83133125305,-0.105700500309,-0.00475943135098,-0.00378340552561,-0.00223815441132;
2536481183780,0.999988794327,-7.54379288992E-05,0.00472258450463,0.000254791666521,-0.0308687221259,-9.81170654297,-0.106893315911,0.00273883366026,-0.000709295272827,-0.00124424695969;
2536483163640,0.999988794327,-7.06859354977E-05,0.00472810864449,0.000256342755165,-0.0385326333344,-9.82664680481,-0.102151580155,-0.00441819475964,-0.00125914812088,0.00379681610502;
2536486283410,0.999988734722,-6.77840071148E-05,0.00472838897258,0.000260275992332,-0.00688209244981,-9.81464958191,-0.0965947508812,-0.000223517461563,-0.00315755652264,0.00230669975281;
2536488447430,0.999988734722,-6.96480710758E-05,0.00472274143249,0.000264397938736,-0.0175354219973,-9.78677463531,-0.105419337749,0.00451803207397,-0.0032901763916,-0.0015079973964;
2536491138780,0.999988734722,-7.56063091103E-05,0.00472368299961,0.000268091767794,-0.0453142337501,-9.81873321533,-0.124925680459,-0.000753998756409,-0.00293254922144,-0.00478029297665;
2536493182160,0.999988734722,-7.23174962332E-05,0.00472714845091,0.000267362571321,-0.0387775488198,-9.79430484772,-0.123449534178,-0.00277161598206,0.000570714531932,0.00263452529907;
2536496262360,0.999988734722,-6.94316549925E-05,0.00472406577319,0.00026494442136,-0.0442290231586,-9.78880596161,-0.143289029598,0.00246614171192,0.00192374002654,0.00231713079847;
2536499297200,0.999988734722,-6.98851654306E-05,0.00471995724365,0.000268471019808,-0.0389733053744,-9.78577899933,-0.155195355415,0.00328719615936,-0.00281929923221,-0.000376999349101;
2536501377570,0.999988734722,-7.60349721531E-05,0.00471814116463,0.000268125761067,-0.021438088268,-9.82428264618,-0.136906042695,0.00145137286745,0.000299513310893,-0.00491887284443;
2536503460840,0.999988794327,-7.53714339226E-05,0.00471059419215,0.000276080536423,-0.0172163285315,-9.83242511749,-0.135523378849,0.00603795005009,-0.00636577606201,0.000499188958202;
2536506562760,0.999988913536,-8.14575105323E-05,0.00470734061673,0.000281814835034,-0.0439293459058,-9.81003189087,-0.130538851023,0.00246167206205,-0.00456273555756,-0.00489205121994;
2536508614010,0.999988973141,-8.61812222865E-05,0.00469659036025,0.000285131158307,-0.0327794104815,-9.83844661713,-0.115898132324,0.00859946012497,-0.00263452529907,-0.00379383633845;
2536511436090,0.999989032745,-8.08228069218E-05,0.00468902755529,0.00028576416662,-0.0350278168917,-9.83877944946,-0.0874162912369,0.00605136202648,-0.000526010990143,0.00428259372711;
2536513355580,0.99998909235,-8.05568124633E-05,0.00467539904639,0.000291214208119,-0.0245329029858,-9.8042640686,-0.0872857496142,0.0109031796455,-0.00436008023098,0.000189244747162;
2536516432650,0.99998909235,-8.70506846695E-05,0.00466887326911,0.00029147049645,-0.0224628280848,-9.8020029068,-0.0740798562765,0.0052198767662,-0.000180304035894,-0.00519752549008;
2536518626370,0.999989151955,-8.49752177601E-05,0.00465687131509,0.00029520955286,-0.0068355477415,-9.82929420471,-0.030484220013,0.00960231013596,-0.00299811409786,0.00164359842893;
2536521555410,0.999989151955,-8.91940799193E-05,0.00465128384531,0.000297671620501,-0.0224003046751,-9.78876399994,-0.0578620135784,0.0044688587077,-0.00195354223251,-0.0033855442889;
2536525033700,0.999989211559,-8.83947868715E-05,0.00464369216934,0.000295230362099,-0.0270225573331,-9.79486083984,-0.0297908205539,0.00607371330261,0.00195056234952,0.000646710395813;
2536526900930,0.999989211559,-9.12741452339E-05,0.00463695824146,0.000298885861412,-0.0347168296576,-9.81000137329,-0.0473963841796,0.00538676884025,-0.00291317678057,-0.00231862044893;
2536529057750,0.999989271164,-9.40620520851E-05,0.00462975678965,0.000302548432956,-0.00118509237655,-9.7827796936,-0.0323019064963,0.00576078798622,-0.00291913701221,-0.00224560475908;
2536532795990,0.999989271164,-9.6236137324E-05,0.00462645012885,0.000301050080452,-0.0284485220909,-9.7809677124,-0.0288555864245,0.00264495564625,0.00120699394029,-0.00173449504655;
2536533030830,0.999989271164,-0.000102152669569,0.00463049439713,0.000306394969812,-0.0275587365031,-9.77225875854,-0.0374389663339,-0.00323653174564,-0.00425428105518,-0.0047519793734;
2536536907810,0.999989211559,-0.000103210579255,0.00463198404759,0.000308120797854,-0.0415714457631,-9.79457473755,-0.0573806352913,-0.00119209312834,-0.00137686764356,-0.000852346594911;
2536538950340,0.999989211559,-0.000105476101453,0.00463639572263,0.000309106864734,-0.0261639300734,-9.76414108276,-0.0355151183903,-0.00353008555248,-0.000780820846558,-0.00181496178266;
2536540992010,0.999989211559,-0.000107387619209,0.00463626487181,0.000310615170747,-0.0340804383159,-9.76328849792,-0.0682327449322,0.000104308135633,-0.0011995434761,-0.00153481960297;
2536543154360,0.999989211559,-0.000107300911623,0.0046411473304,0.000314376840834,-0.0322958901525,-9.78695011139,-0.0945210009813,-0.00390559458174,-0.0030100340955,5.66244161746E-05;
2536548266480,0.999989151955,-0.000109145214083,0.00464313151315,0.000319623126416,-0.00871981866658,-9.79751968384,-0.0865746960044,-0.00166445970535,-0.00418871687725,-0.00151097786147;
2536548498380,0.999989151955,-0.000106769715785,0.00464789941907,0.000322887994116,-0.000720733369235,-9.83649349213,-0.112448513508,-0.00381320761517,-0.00262111471966,0.00188946758863;
2536551413630,0.99998909235,-0.000104444035969,0.00465846760198,0.000325455825077,-0.0159543864429,-9.80710220337,-0.0890240520239,-0.00845342967659,-0.00206381082535,0.00185370468535;
2536553452660,0.99998909235,-0.000103118240077,0.00465800659731,0.000328932888806,-0.0283923763782,-9.84959030151,-0.104197509587,0.000369548768504,-0.00278651667759,0.00104755151551;
2536556492630,0.99998909235,-0.000104790313344,0.00465729413554,0.00033221160993,-0.0345798805356,-9.82621955872,-0.0959790796041,0.000569224532228,-0.0026166443713,-0.00135004520416;
2536558505040,0.99998909235,-0.000104899139842,0.004654138349,0.000329017959302,-0.0245903320611,-9.83614349365,-0.106076084077,0.00252425693907,0.00255554937758,-7.59959220886E-05;
2536561622060,0.99998909235,-0.000111098102934,0.00465548364446,0.00033271239954,-0.00415249587968,-9.81912612915,-0.123765669763,-0.00107735407073,-0.00293254852295,-0.00497251749039;
2536563671060,0.999989151955,-0.000114531911095,0.00464899744838,0.000336853059707,-0.0249668117613,-9.8295583725,-0.0955377444625,0.00518858479336,-0.00329911708832,-0.00276416563429;
2536565735210,0.999989151955,-0.000111593297333,0.00464191334322,0.00034581523505,0.00379331503063,-9.84916210175,-0.0929321050644,0.00546872615814,-0.00717491051182,0.00225305580534;
2536570112960,0.999989151955,-0.000115826631372,0.00463783647865,0.000346824439475,-0.00207456736825,-9.82841396332,-0.107100956142,0.00326037406921,-0.000791251659393,-0.00339150452055;
2536571908770,0.999989211559,-0.000118774900329,0.00462896656245,0.000353462790372,-0.0180032253265,-9.81061649323,-0.115464694798,0.00709593435749,-0.00529885385185,-0.0023856763728;
2536573969030,0.999989271164,-0.000122799363453,0.00461945869029,0.000356522446964,-0.0342535600066,-9.82455825806,-0.115386396646,0.00760555407032,-0.00243186950684,-0.00323355267756;
2536576090800,0.999989271164,-0.000125347607536,0.00461810640991,0.000362038525054,0.00381659599952,-9.77518558502,-0.0675593167543,0.00108182406984,-0.00440329266712,-0.00205934070982;
2536578161340,0.999989271164,-0.000125584178022,0.00461564818397,0.000365072366549,-0.0333684012294,-9.79821681976,-0.113957419991,0.00196695304476,-0.00242590880953,-0.000201165647013;
2536581282160,0.999989271164,-0.00012254169269,0.00461510242894,0.00037245688145,-0.0477384477854,-9.81313610077,-0.111556515098,0.000438094168203,-0.0059187412262,0.00240653753281;
2536583360880,0.999989271164,-0.000125363789266,0.00461047515273,0.000377296615625,-0.0338657572865,-9.80317592621,-0.0578506365418,0.00370144890621,-0.00386089156382,-0.00227689743042;
2536587184530,0.999989330769,-0.000128901854623,0.00460698921233,0.000379651057301,-0.0283503606915,-9.79277610779,-0.0863583534956,0.00278800725937,-0.00187009607907,-0.00284016155638;
2536588627630,0.999989330769,-0.000127836290631,0.00460178172216,0.000380866898922,-0.021603750065,-9.79722213745,-0.0731460377574,0.0041663646698,-0.000976026174612,0.000846386130434;
2536590688870,0.999989330769,-0.00012700042862,0.0045960941352,0.000383126927773,-0.0380739122629,-9.81200313568,-0.0407173782587,0.00455081369728,-0.00181049096864,0.00065863126656;
2536592721940,0.999989330769,-0.000126518934849,0.00459187012166,0.000388247572118,-0.0185525957495,-9.82513999939,-0.0609102323651,0.0033795835916,-0.00409781932831,0.000365078478353;
2536597081080,0.999989390373,-0.000128885105369,0.00458767358214,0.000395473063691,-0.0262155700475,-9.81699180603,-0.0627107098699,0.00335723208264,-0.00577122019604,-0.00192076002713;
2536599186970,0.999989390373,-0.00012832703942,0.00458605913445,0.000397612777306,-0.0368226133287,-9.82388877869,-0.00662595266476,0.00129193067551,-0.00171363377012,0.000438094168203;
2536601215820,0.999989390373,-0.000128614032292,0.00458899326622,0.000400679651648,-0.0287833400071,-9.84800434113,-0.0333944857121,-0.00234693312086,-0.00245273113251,-0.000239908724325;
2536603292880,0.999989390373,-0.000135558424518,0.00458850432187,0.000400556979002,-0.0260537602007,-9.8290977478,-0.0518703386188,0.000388920336263,0.000123679637909,-0.00555515335873;
2536606424980,0.999989390373,-0.000140215634019,0.00459210528061,0.000407650397392,-0.0250675305724,-9.83968925476,-0.0476708039641,-0.00288188457489,-0.00565797137097,-0.00375062250532;
2536608483930,0.999989390373,-0.000138536488521,0.00458954460919,0.000408831430832,-0.00850881449878,-9.83134460449,-0.0609847716987,0.00204890989698,-0.000950694142375,0.00133812427521;
2536611611990,0.999989390373,-0.000141203170642,0.00459564011544,0.000407484913012,-0.00999685749412,-9.835521698,-0.0739224106073,-0.00487715052441,0.0010862944182,-0.00212639570236;
2536615257720,0.999989390373,-0.00014335103333,0.00459703244269,0.000406349019613,-0.00868983007967,-9.81621742249,-0.0856732949615,-0.00111460697372,0.000916421529837,-0.00171363388654;
2536616481640,0.999989330769,-0.00014875420311,0.00459940358996,0.000407871149946,-0.00496650813147,-9.81311798096,-0.104718260467,-0.0018984079361,-0.0011980534764,-0.00432729767635;
2536617836970,0.999989330769,-0.000150256484631,0.00460512004793,0.000410594831919,-0.0164753366262,-9.83902072906,-0.105260938406,-0.00457316683605,-0.00217407965101,-0.00120997428894;
2536621959640,0.999989330769,-0.000151547355927,0.00460645742714,0.000412725872593,-0.0225175376981,-9.82469940186,-0.143130987883,-0.00106990349013,-0.00170022249222,-0.00104010105133;
2536624087770,0.999989330769,-0.000152364766109,0.00460899574682,0.000412211433286,-0.0107901683077,-9.84601402283,-0.120963968337,-0.00203102827072,0.000414252310293,-0.000651180744171;
2536626104850,0.999989271164,-0.000150603853399,0.00461068190634,0.000417668343289,-0.0123634785414,-9.83486175537,-0.131839796901,-0.00122934591491,-0.00437647104263,0.00145584344864;
2536628194340,0.999989330769,-0.000146535501699,0.0046029118821,0.000424704659963,-0.00933754164726,-9.83842754364,-0.112755991518,0.00621825456619,-0.00564306974411,0.00322610209696;
2536632252440,0.999989330769,-0.000145252328366,0.00459861755371,0.000427906925324,-0.0062484703958,-9.8136920929,-0.137930199504,0.00343620800413,-0.00256597995758,0.00101327896118;
2536634468520,0.999989330769,-0.000143664379721,0.00459459563717,0.000433411827544,-0.0238857716322,-9.79996490479,-0.126825138927,0.00321865128353,-0.00440925406292,0.00124871730804;
2536636510490,0.999989330769,-0.000142474586028,0.0045938170515,0.00043121597264,-0.00441604061052,-9.82288169861,-0.0885512679815,0.000622868537903,0.00175237667281,0.000959634839091;
2536638491490,0.999989330769,-0.00014597302652,0.00458849966526,0.000430234416854,-0.00926514808089,-9.82940387726,-0.105175212026,0.00425279187039,0.000798702414613,-0.00279694795609;
2536641594150,0.999989390373,-0.000147535989527,0.00457868492231,0.000429274427006,-0.0266778860241,-9.82439804077,-0.127784341574,0.00785142276436,0.00077486038208,-0.00125020742416;
2536643722700,0.999989449978,-0.000149505285663,0.00457130931318,0.000427261693403,-0.0149159049615,-9.82006931305,-0.084613032639,0.00589937018231,0.00161826610565,-0.00157058273908;
2536645703200,0.999989449978,-0.000149968036567,0.00456169759855,0.000432611763244,-0.0346256494522,-9.80898284912,-0.0944127067924,0.0075623402372,-0.00427216337994,-0.000473857013276;
2536647723720,0.999989449978,-0.00015255616745,0.0045583518222,0.000434957997641,-0.0182360708714,-9.80910110474,-0.0808177962899,0.00267624855042,-0.00186711549759,-0.00208020233549;
2536651892530,0.999989449978,-0.000153874789248,0.00455555552617,0.000435130234109,-0.0301578901708,-9.81590747833,-0.0745462700725,0.00223666452803,-0.000132620334625,-0.00105649232864;
2536654389020,0.999989509583,-0.000156830516062,0.00454851379618,0.000439434486907,-0.0324623659253,-9.82175636292,-0.0669345259666,0.00563263893127,-0.00343173812144,-0.0023826956749;
2536656274000,0.999996244907,0.00134804868139,0.0023086857982,0.000536353094503,-0.0372740738094,-9.82558822632,-0.0678780525923,0.00362098263577,-0.00193864142057,-0.00182092224713;
2536658169240,0.999996244907,0.00134743214585,0.0023044233676,0.000539397937246,-0.0224411990494,-9.82360839844,-0.0699158981442,0.00340640544891,-0.00243932008743,-0.000500679074321;
2536661257280,0.999996244907,0.00134784029797,0.00230557587929,0.000545429822523,-0.0104513457045,-9.83317470551,-0.070058144629,-0.000928342458792,-0.00482499739155,0.000315904646413;
2536663407450,0.999996244907,0.00134820048697,0.00230878614821,0.00054489687318,0.011556243524,-9.81542491913,-0.0682626292109,-0.0025674700737,0.000429153471487,0.00029057264328;
2536666530390,0.999996244907,0.00134478358086,0.00230867322534,0.000546895724256,-0.00679960800335,-9.82142066956,-0.0913896560669,8.64267422003E-05,-0.00159293436445,-0.00273734331131;
2536668583040,0.999996244907,0.00134424527641,0.00230703712441,0.000547282164916,-0.02648970671,-9.80281829834,-0.0873960107565,0.00130832195282,-0.000309944152832,-0.000432133761933;
2536670978210,0.999996244907,0.0013357490534,0.00230001914315,0.00055176456226,-0.0166960563511,-9.7967338562,-0.0726934671402,0.00560581684113,-0.00357776903547,-0.00680834101513;
2536672754170,0.999996244907,0.00133287359495,0.00229882542044,0.00055735942442,-0.0250737890601,-9.80125045776,-0.0983599349856,0.000947713968344,-0.00447183893993,-0.00231117010117;
2536676922030,0.999996244907,0.00133244146127,0.00230068108067,0.000559478881769,-0.0330544821918,-9.80629920959,-0.0793045386672,-0.00148713623639,-0.00169277214445,-0.000348687171936;
2536678967640,0.999996244907,0.00133269175421,0.00230398843996,0.000563018023968,-0.0127784367651,-9.80702018738,-0.0533454567194,-0.00264942646027,-0.00282824039459,0.000195205226191;
2536681041960,0.999996244907,0.00132851116359,0.00230065081269,0.000566728063859,-0.0109749333933,-9.81966876984,-0.0780166015029,0.00266432831995,-0.00296384142712,-0.00335276173428;
2536683107170,0.999996244907,0.001325821504,0.0023043921683,0.000571721873712,-0.025422917679,-9.80765247345,-0.0836807340384,-0.00299960374832,-0.00398606108502,-0.00215917825699;
2536686253980,0.999996244907,0.0013220726978,0.00230152881704,0.000580134626944,-0.0114667210728,-9.81585979462,-0.0756596326828,0.00227987812832,-0.00672638555989,-0.00301599572413;
2536688317100,0.999996244907,0.00132257386576,0.0022972531151,0.000582370441407,-0.0196498315781,-9.83779430389,-0.0865869447589,0.00341832637787,-0.00179409980774,0.000394880800741;
2536691481000,0.999996244907,0.0013200257672,0.00229607033543,0.000586932641454,-0.0190243534744,-9.82344722748,-0.126010760665,0.000940263387747,-0.00364631484263,-0.00204741978087;
2536693556070,0.999996244907,0.00131608359516,0.0023013043683,0.000587930204347,-0.0146330539137,-9.84644126892,-0.12525498867,-0.00419020792469,-0.000785291311331,-0.00315308640711;
2536696682450,0.999996244907,0.00131407543086,0.00230721081607,0.00059410429094,-0.0270580165088,-9.84269237518,-0.120875149965,-0.00473260786384,-0.00492930458859,-0.00161528598983;
2536701293260,0.999996244907,0.00131114234682,0.00231303786859,0.000596685451455,-0.009944495745,-9.85683059692,-0.13770031929,-0.00466555356979,-0.00205338001251,-0.00234842323698;
2536703411530,0.999996244907,0.00131566461641,0.00231340480968,0.000603099761065,-0.0330043137074,-9.85012626648,-0.142217636108,-0.000298023252981,-0.00513941049576,0.00360608100891;
2536703615670,0.999996244907,0.00131503934972,0.00231025484391,0.00060574390227,-0.0204803198576,-9.83917236328,-0.133166283369,0.00251680635847,-0.00211745500565,-0.000506639538798;
2536706496470,0.999996244907,0.00131648976821,0.00230501894839,0.000608948583249,-0.0215106494725,-9.82434272766,-0.131223976612,0.00418573524803,-0.00257194065489,0.00115185964387;
2536708572730,0.999996244907,0.00131107156631,0.00230095884763,0.000610430957749,-0.0161123778671,-9.80815410614,-0.120744995773,0.00324398349039,-0.00118017208297,-0.00433921813965;
2536711390840,0.999996244907,0.00131112907548,0.00229166192003,0.000615118129645,-0.0350138582289,-9.79940032959,-0.136675804853,0.00743270060048,-0.00375956296921,3.27825546265E-05;
2536712918990,0.999996244907,0.0013136852067,0.00228463392705,0.00062080094358,-0.0204476937652,-9.79585170746,-0.109248630702,0.00561773823574,-0.00455826427788,0.00203102803789;
2536717014030,0.999996304512,0.00131194130518,0.00227475585416,0.00062438310124,-0.0169714763761,-9.78736400604,-0.0958654880524,0.00789761543274,-0.002872944111,-0.00140666950028;
2536719124730,0.999996364117,0.00131261278875,0.00226002978161,0.000628942565527,-0.0297263320535,-9.78864574432,-0.0710523426533,0.0117763876915,-0.00366419553757,0.000521540699992;
2536721180730,0.999996364117,0.00130988413002,0.00225591170602,0.000630329130217,-0.0229659657925,-9.78679656982,-0.0630943700671,0.00329166650772,-0.00110864650924,-0.00218749069609;
2536723236020,0.999996364117,0.0013062839862,0.00224958010949,0.000634533003904,-0.0157607831061,-9.79201316833,-0.0664544180036,0.00505894469097,-0.00336319208145,-0.00289082550444;
2536726337860,0.999996364117,0.00130280398298,0.00224654050544,0.000638304976746,-0.0257647894323,-9.77782058716,-0.0526250451803,0.00242590904236,-0.00301450514235,-0.00279247784056;
2536728434210,0.999996364117,0.00130549049936,0.00224569346756,0.000639141595457,0.00826820172369,-9.78548526764,-0.0457478687167,0.000678002892528,-0.000675022660289,0.00214725732803;
2536731640880,0.999996364117,0.00130485894624,0.00224874960259,0.000644930580165,-0.0266969203949,-9.81081104279,-0.0594319887459,-0.00245124124922,-0.00462681055069,-0.000514090061188;
2536733656490,0.999996364117,0.0013071121648,0.00225118757226,0.000646223255899,0.00730488821864,-9.81893539429,-0.0544550232589,-0.00195056234952,-0.00103563070297,0.00180155050475;
2536735651900,0.999996364117,0.0013081865618,0.00224743038416,0.000644139014184,-0.00329912290908,-9.82263660431,-0.0680721253157,0.00300854444504,0.00166147958953,0.000861287175212;
2536737745010,0.999996364117,0.00130049407016,0.00225378433242,0.00064858654514,-0.0117163090035,-9.84188270569,-0.0630080848932,-0.00509172584862,-0.00353753566742,-0.00615864945576;
2536741845390,0.999996364117,0.00129862083122,0.00225514848717,0.000654240138829,-0.0137502169237,-9.84278297424,-0.0681549757719,-0.0010982156964,-0.00451803207397,-0.00150799727999;
2536744080100,0.999996364117,0.00130192341749,0.00225498271175,0.000655862269923,-0.0340756438673,-9.84257507324,-0.0908162221313,0.000132620349177,-0.00130385160446,0.00263899588026;
2536746040540,0.999996304512,0.00130436522886,0.00226419884712,0.000654307834338,-0.016546394676,-9.82508468628,-0.108554236591,-0.00737011432648,0.00124871742446,0.00196099304594;
2536748317170,0.999996304512,0.00130698923022,0.00226666242816,0.000658956123516,-0.0212415084243,-9.79514122009,-0.0888709872961,-0.00197440409102,-0.00372082018293,0.00209212303162;
2536752330130,0.999996304512,0.00130640424322,0.002266301075,0.000662931881379,-0.0334450118244,-9.84367179871,-0.0780152007937,0.000284612178802,-0.0031799080316,-0.00047534701298;
2536754372710,0.999996304512,0.00130089581944,0.00226469826885,0.000662236299831,-0.0466398075223,-9.80125141144,-0.102941691875,0.00128000974655,0.000564754067454,-0.00440627336502;
2536756523600,0.999996304512,0.00130370014813,0.00226671947166,0.00066480867099,-0.0225145686418,-9.8004283905,-0.129274323583,-0.0016182664549,-0.00206083059311,0.00223964452744;
2536758502710,0.999996304512,0.00130006542895,0.00226447591558,0.000667943269946,0.00105392350815,-9.76793193817,-0.116417810321,0.0017896295758,-0.0025033953134,-0.00291466712952;
2536760587240,0.999996304512,0.00129806261975,0.00226200185716,0.000674426672049,-0.0120501322672,-9.80163860321,-0.145917341113,0.00197142339312,-0.00518560409546,-0.00161528587341;
2536762645490,0.999996304512,0.00130053656176,0.00226145563647,0.000681822595652,-0.00898456666619,-9.79720306396,-0.114120289683,0.00043064361671,-0.0059217219241,0.00196546316147;
2536766850420,0.999996304512,0.00129651802126,0.00225874432363,0.000686799292453,-0.0133686671034,-9.78885936737,-0.132562503219,0.00211447477341,-0.00397563027218,-0.00324696325697;
2536768883360,0.999996304512,0.00128838850651,0.00226103235036,0.000692084489856,-0.0165848694742,-9.78381061554,-0.114056587219,-0.00184029340744,-0.00421106815338,-0.00651180790737;
2536770981770,0.999996304512,0.00129024579655,0.00225908635184,0.000699815282132,-0.0309129022062,-9.81174087524,-0.104519955814,0.00154972088058,-0.00618994235992,0.00147074460983;
2536772992760,0.999996304512,0.00129037618171,0.00225144508295,0.000703210069332,-0.0204295516014,-9.79777145386,-0.108747906983,0.00610947748646,-0.0027239327319,9.38773373491E-05;
2536777109470,0.999996304512,0.00129347154871,0.00224902690388,0.00070389843313,-0.026268966496,-9.80529785156,-0.122088380158,0.00193566107191,-0.000558793602977,0.00247359299101;
2536779234220,0.999996304512,0.00129291042686,0.0022478448227,0.000705805548932,0.0113415978849,-9.81702804565,-0.094837680459,0.000943243503571,-0.00152587890625,-0.000452995329397;
2536781266790,0.999996304512,0.00128263281658,0.00224268832244,0.000703579396941,-0.0206889733672,-9.82749652863,-0.106483861804,0.00412166072056,0.00179409980774,-0.00822097063065;
2536783314400,0.999996304512,0.00128140975721,0.00223593320698,0.00070673628943,-0.040322702378,-9.81767940521,-0.0896794870496,0.00540018035099,-0.00253021670505,-0.000987947103567;
2536786418020,0.999996483326,0.00128175353166,0.00222895457409,0.000712439301424,-0.0305308457464,-9.86332416534,-0.0765911787748,0.00557750510052,-0.00457018613815,0.000260770320892;
2536788537530,0.999996483326,0.00128076423425,0.00222498993389,0.00072275736602,-0.0513612627983,-9.8262386322,-0.0973093360662,0.00316053628922,-0.00825673341751,-0.000812113343272;
2536791664140,0.999996483326,0.00127627688926,0.00221864762716,0.00072896562051,-0.00808423012495,-9.81826305389,-0.0732846558094,0.00506490515545,-0.00496506690979,-0.00360459089279;
2536793683110,0.999996483326,0.00127506256104,0.00222054752521,0.000729648745619,-0.0341536030173,-9.81185436249,-0.0959769114852,-0.00152140867431,-0.000542402267456,-0.000971555768047;
2536795724320,0.999996483326,0.00127125775907,0.00221966183744,0.000731250504032,0.0283867288381,-9.80686569214,-0.0583119243383,0.000704824924469,-0.00127553951461,-0.00304728769697;
2536797765790,0.999996483326,0.00127542577684,0.00221891258843,0.000734078988899,0.00127687107306,-9.80706787109,-0.087616071105,0.000599026679993,-0.00227093696594,0.00332891964354;
2536801922580,0.999996483326,0.00127179757692,0.00221638195217,0.000735853391234,-0.00495385564864,-9.78740501404,-0.0903409793973,0.00202059769072,-0.00141561031342,-0.00290721608326;
2536804014150,0.999996483326,0.00127254799008,0.00221564411186,0.000742222939152,-0.00718572270125,-9.79773426056,-0.0680064186454,0.000584125577006,-0.00509768724442,0.000588595925365;
2536806035890,0.999996483326,0.00127450365108,0.00221757567488,0.000752072548494,0.0106480522081,-9.81461429596,-0.0544454678893,-0.00155419134535,-0.00788122508675,0.00154823099729;
2536808111720,0.999996483326,0.00127068010624,0.00222287233919,0.000759137910791,-0.0217943713069,-9.79712581635,-0.0408852063119,-0.00424683094025,-0.00564008951187,-0.00306814932264;
2536811298920,0.999996483326,0.00126926193479,0.00222034519538,0.000762168376241,-0.00373942637816,-9.78874015808,-0.0570637769997,0.00201761745848,-0.00242441892624,-0.00114142894745;
2536813300040,0.999996483326,0.00126963295043,0.00222125835717,0.000763483752962,-0.00948451180011,-9.79595184326,-0.0566065423191,-0.000731647014618,-0.0010520220967,0.000295042991638;
2536816588830,0.999996483326,0.00126588460989,0.00222110422328,0.000768120575231,-0.0162408426404,-9.7862663269,-0.0669866651297,0.000116229071864,-0.0037029387895,-0.00300705456175;
2536818607210,0.999996483326,0.00126297934912,0.00221967534162,0.000767888675909,-0.0014510959154,-9.78574180603,-0.0679988563061,0.00114142906386,0.000189244761714,-0.00232458114624;
2536820678370,0.999996483326,0.0012628082186,0.00221772491932,0.000772351399064,0.00483692251146,-9.81064987183,-0.0667071640491,0.00155568134505,-0.00357180833817,-0.0001460313797;
2536822762910,0.999996483326,0.00126438622829,0.00221817195415,0.000771825085394,-0.0371407605708,-9.8208065033,-0.109723068774,-0.000356137781637,0.000418722629547,0.00126361858565;
2536826856370,0.999996483326,0.00126547657419,0.00221958057955,0.000770902377553,-0.00015838976833,-9.82323265076,-0.0986077561975,-0.00112503767014,0.000737607537303,0.000874698336702;
2536828934180,0.999996483326,0.00126326724421,0.0022162864916,0.000774678774178,-0.0276317298412,-9.82541561127,-0.122607499361,0.00263005471788,-0.00302046514116,-0.00177621818148;
2536831010740,0.999996483326,0.00126670813188,0.00221744086593,0.000777021399699,-0.0446940027177,-9.82669639587,-0.0992880687118,-0.000923872168642,-0.00187903665937,0.00274926470593;
2536833098230,0.999996483326,0.00126100727357,0.00221299054101,0.000784182862844,-0.0260317064822,-9.83699703217,-0.115056589246,0.00354945659637,-0.00572353648022,-0.00457614660263;
2536837329840,0.999996483326,0.00125789549202,0.00221789092757,0.000791249738541,-0.0331636331975,-9.84812259674,-0.108493283391,-0.00392943620682,-0.00564307020977,-0.00249892496504;
2536839376350,0.999996483326,0.00125537940767,0.00221439171582,0.000793506565969,-0.0303849931806,-9.83842754364,-0.115993268788,0.0027954573743,-0.00180453062057,-0.00201910710894;
2536841489530,0.999996483326,0.00125375494827,0.00221249833703,0.000801977235824,-0.0265054237098,-9.81606864929,-0.101677954197,0.00150501716416,-0.00677555706352,-0.00131577230059;
2536843500910,0.999996483326,0.00125189544633,0.00220246869139,0.000810678524431,-0.0193242672831,-9.82038497925,-0.099777802825,0.00801384449005,-0.00696778437123,-0.00150948762894;
2536846815850,0.999996542931,0.00124864396639,0.00219435500912,0.000813057937194,-0.00741097750142,-9.79541683197,-0.102176330984,0.00648647546768,-0.00190585840028,-0.00261068320833;
2536848870260,0.999996542931,0.00124460540246,0.00218651047908,0.000814239843749,-0.00530914217234,-9.79709815979,-0.0803484022617,0.00627189874649,-0.000946223735809,-0.00323802256025;
2536850880370,0.999996542931,0.00124691950623,0.00218426366337,0.000814528146293,-0.0266110934317,-9.78643321991,-0.0968135297298,0.00179857027251,-0.000236928462982,0.00184923410416;
2536852955700,0.999996542931,0.00124980555847,0.00217717397027,0.000818206637632,-0.0518712699413,-9.79855251312,-0.0890590697527,0.00566989229992,-0.00295490026474,0.00229775882326;
2536857162940,0.999996602535,0.00124436791521,0.00217556022108,0.000818225729745,-0.0415212064981,-9.80698490143,-0.0612002909184,0.00128746044356,-7.45058150642E-06,-0.0043511390686;
2536859242640,0.999996602535,0.00124349526595,0.00216725864448,0.000818984757643,-0.027621479705,-9.80893516541,-0.0555078610778,0.00663995742798,-0.000613927841187,-0.000704824866261;
2536861352920,0.999996602535,0.00124308082741,0.00216019083746,0.000821020221338,-0.022927807644,-9.81739902496,-0.068424411118,0.00565200997517,-0.00163465715013,-0.000339746417012;
2536863387700,0.999996602535,0.00124117720407,0.00215862109326,0.000823896494694,-0.0104293925688,-9.8241443634,-0.0638176947832,0.0012516976567,-0.00229924917221,-0.00152885948773;
2536866451700,0.99999666214,0.00123846740462,0.00216047116555,0.00082467199536,-0.0282174497843,-9.80305099487,-0.0684028118849,-0.0014826656552,-0.000613927841187,-0.0021681189537;
2536868495020,0.99999666214,0.00123853981495,0.00216037896462,0.000825357157737,-0.0444009788334,-9.82084846497,-0.0654976963997,7.30156898499E-05,-0.000548362615518,5.66244161746E-05;
2536871683470,0.99999666214,0.00123651931062,0.00215786509216,0.000834073754959,0.002125301864,-9.84713459015,-0.0611289739609,0.00200122618116,-0.0069722533226,-0.00163316726685;
2536874148260,0.99999666214,0.00123787042685,0.00215545552783,0.000846441427711,-0.0133552430198,-9.81978797913,-0.0675502568483,0.00191628921311,-0.00989884138107,0.00105798232835;
2536876161950,0.999996542931,0.00124250014778,0.00215074140579,0.000846015696879,-0.0342384688556,-9.8349275589,-0.047036614269,0.0037744641304,0.000327825517161,0.00370144867338;
2536878232660,0.999996542931,0.00123957102187,0.00214921706356,0.000847538176458,-0.00803686305881,-9.82695198059,-0.0690697729588,0.00121593452059,-0.0012144446373,-0.0023469326552;
2536881373120,0.999996542931,0.00124341994524,0.00214861240238,0.000851079355925,-0.0113173071295,-9.82712554932,-0.0538408532739,0.000482797651784,-0.00284016132355,0.00307261990383;
2536883384260,0.999996542931,0.00124318059534,0.00214534718543,0.000855395279359,-0.0220852680504,-9.81674766541,-0.0836684256792,0.00260770344175,-0.00345557928085,-0.000201165690669;
2536886498720,0.999996542931,0.00124271248933,0.00214521423914,0.000854252488352,-0.00328685343266,-9.81503105164,-0.0624332465231,0.000107288367872,0.000914931413718,-0.000372529029846;
2536888590340,0.999996542931,0.00124129513279,0.00214214506559,0.000857457402162,-0.0344656743109,-9.82401943207,-0.0783971771598,0.00245124101639,-0.00256448984146,-0.00114142906386;
2536890636290,0.999996542931,0.0012411007192,0.00213713594712,0.000857704901136,-0.018616611138,-9.82595729828,-0.0737099945545,0.00400692271069,-0.000202655792236,-0.000159442424774;
2536892706010,0.999996542931,0.00123693596106,0.00213486189023,0.000857720326167,-0.0127332638949,-9.80795669556,-0.0537426918745,0.00181645166595,-7.45058059692E-06,-0.00333338999189;
2536896915140,0.999996602535,0.00123483047355,0.00212833657861,0.00086255959468,-0.033600077033,-9.825756073,-0.0940230935812,0.0052139153704,-0.00387430167757,-0.00169724237639;
2536898952410,0.999996602535,0.00123261054978,0.00212477170862,0.000868330476806,-0.0262603927404,-9.81743907928,-0.0650896802545,0.00284463167191,-0.00461637973785,-0.00178813945968;
2536900977870,0.999996602535,0.0012334730709,0.0021203502547,0.000874483026564,-0.0432608574629,-9.78940200806,-0.0919724106789,0.00353157520294,-0.00492781447247,0.000676512776408;
2536903089120,0.999996602535,0.00122899282724,0.00212320848368,0.000878059305251,-0.0253696832806,-9.81439399719,-0.0812912508845,-0.00229328940623,-0.00285059260204,-0.00358820031397;
2536907245470,0.99999076128,0.00160762644373,0.00387880671769,0.000905717548449,-0.048132404685,-9.80119037628,-0.109165996313,-0.00316351698712,0.000609457667451,-0.00381767819636;
2536909292370,0.99999076128,0.00160558323842,0.00387784745544,0.000904593325686,-0.0385000482202,-9.82321548462,-0.10783585906,0.000767409801483,0.000904500368051,-0.00163167726714;
2536911358540,0.99999076128,0.00160065607633,0.00388110545464,0.0009028276545,-0.0322444587946,-9.8255815506,-0.109331399202,-0.00260770344175,0.00143200159073,-0.00393390655518;
2536913488160,0.99999076128,0.0015995579306,0.00388044165447,0.000901458086446,0.000790715799667,-9.84181785583,-0.107209712267,0.000531971512828,0.00109821581282,-0.000874698336702;
2536916899460,0.99999076128,0.00159487733617,0.0038765121717,0.000898627564311,-0.0270036682487,-9.83894062042,-0.112212009728,0.0031441450119,0.00227391743101,-0.00373870204203;
2536918930130,0.99999076128,0.00159363285638,0.00387128232978,0.000904565968085,-0.0110624888912,-9.82483196259,-0.0861035212874,0.00417530536652,-0.00475347042084,-0.00101774942596;
2536921033860,0.99999076128,0.00159179291222,0.00386528391391,0.000905159628019,0.00355282821693,-9.82108879089,-0.117094770074,0.00479668285698,-0.000476837129099,-0.00147819507401;
2536923136510,0.99999076128,0.00159134285059,0.00386119168252,0.000907248526346,-0.0187727268785,-9.82431316376,-0.0912994593382,0.00327080488205,-0.0016748906346,-0.000369548797607;
2536927325840,0.999990820885,0.00159092782997,0.00385883473791,0.000913555151783,-0.0313149653375,-9.83896827698,-0.111718080938,0.00187754607759,-0.00504702283069,-0.000353157549398;
2536929378800,0.999990820885,0.00159275135957,0.00385664962232,0.00091592327226,-0.0171603932977,-9.83462905884,-0.0699924454093,0.00174641620833,-0.00190287840087,0.00144988298416;
2536931424110,0.999990820885,0.00159174459986,0.00385451153852,0.000929184025154,-0.0438435077667,-9.80429077148,-0.0464072450995,0.00169277202804,-0.0106081366539,-0.00084787607193;
2536933498070,0.999990880489,0.00158894632477,0.00384607631713,0.000936676806305,-0.0482966713607,-9.82030200958,-0.0710674002767,0.0067368154414,-0.0059962272644,-0.00226795696653;
2536936889950,0.999990880489,0.00158747436944,0.00384007650428,0.000941823178437,-0.0366816520691,-9.80613231659,-0.0507249012589,0.0047922139056,-0.00412017200142,-0.00119805335999;
2536938741140,0.999990880489,0.00158649566583,0.00383481616154,0.000943683146033,-0.00594116281718,-9.79004478455,-0.0270946528763,0.0042051076889,-0.0014916062355,-0.000792741950136;
2536940786410,0.999990880489,0.00159087730572,0.00383687438443,0.000946322048549,-0.00567094935104,-9.79982566833,-0.0519440285861,-0.00164657866117,-0.002121925354,0.00349879264832;
2536942894470,0.999990880489,0.00159363774583,0.00383624713868,0.00094762921799,-0.0409490205348,-9.82921695709,-0.0450903847814,0.00050216919044,-0.00105500221252,0.0022038819734;
2536947012420,0.999990880489,0.00160098704509,0.00383587018587,0.000946812448092,0.00587617466226,-9.79036140442,-0.0381453707814,0.000308454007609,0.000630319002084,0.00588148832321;
2536952323750,0.999990880489,0.00160113198217,0.00383505038917,0.00094943511067,-0.00101631821599,-9.80286598206,-0.0780899301171,0.000652670860291,-0.00209957361221,0.000107288382424;
2536952541860,0.999990880489,0.00159525324125,0.00383445015177,0.000955534575041,0.015355579555,-9.78473472595,-0.0690764859319,0.000467896519694,-0.00486224936321,-0.00472217844799;
2536953321080,0.999990880489,0.00159186497331,0.00384006695822,0.000956450589001,-0.0178269315511,-9.82760620117,-0.0971110537648,-0.00449717184529,-0.00071525585372,-0.00270903180353;
2536957920840,0.999990880489,0.00159160362091,0.00383975706063,0.000961537996773,0.00232920655981,-9.81616401672,-0.0881016850471,0.00024139881134,-0.0040695075877,-0.000225007577683;
2536960173990,0.999990820885,0.00159165100195,0.00384875200689,0.000962552381679,-0.0256729535758,-9.79974746704,-0.10606392473,-0.00719726225361,-0.000800192414317,4.17232513428E-05;
2536962254920,0.999990820885,0.0015932143433,0.0038489268627,0.000964670092799,-0.0106406044215,-9.83532714844,-0.0904773250222,-0.000141561031342,-0.00169873249251,0.0012442470761;
2536964112810,0.999990820885,0.0015951389214,0.00384582811967,0.000965454964899,-0.0386796481907,-9.83975601196,-0.126896828413,0.00247955275699,-0.000637769640889,0.00153481937014;
2536966110780,0.999990880489,0.00159753405023,0.00384663138539,0.000971398199908,-0.0347917303443,-9.83737754822,-0.125525027514,-0.000648200511932,-0.0047609214671,0.00189840805251;
2536968241860,0.999990880489,0.00159772660118,0.00384749867953,0.00097663665656,-0.0323639921844,-9.83364582062,-0.116973087192,-0.000700354459696,-0.00419020652771,0.000138580813655;
2536971376220,0.999990880489,0.00159384205472,0.00384555151686,0.000981690711342,-0.0245827361941,-9.82419204712,-0.103191003203,0.00154823076446,-0.00403374433517,-0.00312477350235;
2536973391360,0.999990880489,0.0015923588071,0.0038412802387,0.00098675058689,-0.0294400285929,-9.83322429657,-0.111215628684,0.00340938544832,-0.00404864456505,-0.00120550382417;
2536976549430,0.999990940094,0.00159017415717,0.00383497076109,0.000992944114842,-0.0545799955726,-9.82282352448,-0.145215570927,0.00503808213398,-0.00495612528175,-0.00177174783312;
2536978564760,0.999990940094,0.00158248783555,0.00383149436675,0.00098981836345,-0.00162462948356,-9.82694816589,-0.109479114413,0.00277906656265,0.00251978635788,-0.00614225910977;
2536980644150,0.999990940094,0.00157757604029,0.00382980983704,0.000994239700958,-0.0356132239103,-9.82462120056,-0.108804889023,0.00133812439162,-0.00352412462234,-0.00394433736801;
2536982722410,0.999990940094,0.0015768148005,0.00382764358073,0.000993827590719,-0.0366477742791,-9.80882072449,-0.109677761793,0.00173300539609,0.000329315720592,-0.000609457667451;
2536987572200,0.999990999699,0.00157902890351,0.00382617581636,0.000995228649117,-0.0237306281924,-9.83897399902,-0.109399229288,0.00117421126924,-0.00112950790208,0.00176578771789;
2536989589410,0.999990999699,0.00157972017769,0.00382572691888,0.000998071511276,-0.0124831246212,-9.82103347778,-0.0842542722821,0.000356137781637,-0.00227689766325,0.000543892383575;
2536991567850,0.999990999699,0.00157472107094,0.00382122001611,0.000996921211481,-0.0066309645772,-9.82349586487,-0.0761637464166,0.00360310077667,0.000929832633119,-0.00399947213009;
2536993506830,0.999990999699,0.0015764546115,0.0038197345566,0.00099976407364,-0.0172538533807,-9.79157066345,-0.0641471967101,0.00118613243103,-0.00228136801161,0.00137686729431;
2536996629610,0.999991059303,0.001573900925,0.0038148725871,0.000998521805741,0.00336427614093,-9.80483913422,-0.0727951750159,0.00388920353726,0.000995397684164,-0.00204294943251;
2536998715480,0.999991059303,0.00157466169912,0.00381657271646,0.000999199575745,-0.0137955909595,-9.81219387054,-0.0623798109591,-0.00136047578417,-0.000542402151041,0.000607967434917;
2537000771090,0.999991059303,0.00157205027062,0.00381103227846,0.000995799549855,-0.0416776612401,-9.80011940002,-0.0753332301974,0.00443458603695,0.002720952034,-0.0020831823349;
2537002800970,0.999991059303,0.0015729587758,0.00380716961809,0.000996114104055,-0.0418125987053,-9.84839820862,-0.0422968231142,0.00309050106443,-0.000259280204773,0.000722706376109;
2537006943050,0.999991118908,0.00157483608928,0.00380116794258,0.00099635287188,-0.0275919213891,-9.80426025391,-0.0459805056453,0.00480264425278,-0.000204145922908,0.00149607670028;
2537009026400,0.999991118908,0.00157276866958,0.00379357719794,0.000998801901005,-0.0281285438687,-9.80987739563,-0.0569463372231,0.00606775283813,-0.00196248292923,-0.00166744005401;
2537011089600,0.999991118908,0.00157024688087,0.00379340117797,0.000997838913463,0.00409072544426,-9.81714725494,-0.0439251773059,0.000140070929774,0.000777840614319,-0.00201463699341;
2537013100920,0.999991118908,0.00156964920461,0.00380115630105,0.00100390519947,0.00299151241779,-9.83034801483,-0.0635481998324,-0.00621229456738,-0.00484138727188,-0.000490248261485;
2537016358360,0.999991118908,0.00157105922699,0.0037942964118,0.00100495258812,-0.0397601239383,-9.8263874054,-0.082584425807,0.00548809766769,-0.000850856362376,0.00111907732207;
2537019294590,0.999991118908,0.00157098739874,0.00379335321486,0.00100541696884,-0.0134931094944,-9.81717681885,-0.0865870267153,0.000753998756409,-0.000372529029846,-5.96046484134E-05;
2537021932620,0.999991118908,0.00157036201563,0.00379720842466,0.00101000384893,-0.0062228422612,-9.82488441467,-0.081966675818,-0.00309050129727,-0.00366270611994,-0.000511109887157;
2537023925690,0.999991118908,0.00157249008771,0.00380164152011,0.00101487361826,-0.0179060157388,-9.82856559753,-0.0971115231514,-0.00355094694532,-0.00389665365219,0.00169128191192;
2537025947250,0.999991059303,0.00156707840506,0.00380337238312,0.0010171153117,-0.0275210309774,-9.80018997192,-0.108812466264,-0.00139176857192,-0.00177472853102,-0.00433474779129;
2537027952500,0.999991059303,0.00156986841466,0.00380778755061,0.00101726991124,-0.0348044447601,-9.82453632355,-0.118848964572,-0.00353008555248,-0.000126659870148,0.00223517441191;
2537032132160,0.999991059303,0.00157408532687,0.00380416843109,0.00101867492776,-0.0530177950859,-9.81311321259,-0.115770429373,0.00289678550325,-0.00114142894745,0.00336617231369;
2537034149380,0.999991059303,0.00157313444652,0.00379674835131,0.00101886992343,-0.0531485639513,-9.81758975983,-0.141397446394,0.00593513296917,-0.000162422657013,-0.000767409859691;
2537036239150,0.999991118908,0.00157393142581,0.00378825794905,0.00101994338911,-0.0249304436147,-9.81754398346,-0.140148535371,0.00679194927216,-0.000871717988048,0.000627338944469;
2537038312050,0.999991118908,0.0015741615789,0.00378801859915,0.00102063885424,-0.0376212000847,-9.8200378418,-0.17628197372,0.000190734863281,-0.00055730342865,0.000181794181117;
2537041416140,0.999991118908,0.00157558894716,0.00378697901033,0.0010205238359,-0.0098746502772,-9.8073425293,-0.10748847574,0.000832974852528,8.64267203724E-05,0.00114142894745;
2537043615820,0.999991118908,0.00157458218746,0.0037831175141,0.00102365273051,-0.037793956697,-9.7899389267,-0.126238450408,0.00308454059996,-0.00250488519669,-0.00081807380775;
2537046628280,0.999991178513,0.00157222081907,0.00377692491747,0.00103240262251,-0.0102305104956,-9.83225822449,-0.10751837492,0.00494122458622,-0.00700056459755,-0.00192075944506;
2537048675080,0.999991238117,0.00157032872085,0.00376792461611,0.00103494012728,-0.0395584180951,-9.82784843445,-0.120611816645,0.00719577074051,-0.00203549861908,-0.00152885948773;
2537052180500,0.999991238117,0.00157130497973,0.00376148126088,0.00104063167237,-0.0324033610523,-9.85267353058,-0.128869175911,0.00514835165814,-0.00456422567368,0.000758469104767;
2537053685640,0.999991297722,0.00156981067266,0.00375272496603,0.0010420467006,-0.0260655656457,-9.8265542984,-0.105959944427,0.00700205611065,-0.00113844871521,-0.00120699417312;
2537057869140,0.999991297722,0.00156728632282,0.00374428974465,0.00104353867937,-0.0230950079858,-9.7956199646,-0.0873403474689,0.00674426648766,-0.00119656336028,-0.00203102850355;
2537059658580,0.999991297722,0.00156544253696,0.00374029274099,0.00104100233875,-0.0435285717249,-9.81789207458,-0.0716141685843,0.00319927954115,0.00202953838743,-0.00147074460983;
2537061712330,0.999991297722,0.00157140812371,0.00374017935246,0.00103533407673,-0.0183553285897,-9.78806591034,-0.0783956870437,0.000102818026789,0.00451654242352,0.00478923367336;
2537063747120,0.999991357327,0.00157125527039,0.00373091152869,0.00103721627966,-0.00374603224918,-9.79926776886,-0.0584634244442,0.00741183757782,-0.00151693832595,-0.000135600566864;
2537065937470,0.999991357327,0.0015737824142,0.00372116616927,0.00104131945409,0.0054638478905,-9.82663822174,-0.050544064492,0.00779330870137,-0.00330209778622,0.00200122594833;
2537067926750,0.999991357327,0.00156852998771,0.00371606019326,0.00104393495712,-0.0153051586822,-9.77478694916,-0.0645236447453,0.00407695770264,-0.0020831823349,-0.00421404885128;
2537072139980,0.999991357327,0.00156851881184,0.00371434120461,0.00104847166222,-0.0313756763935,-9.79713821411,-0.0407715141773,0.00136941683013,-0.00363141298294,-2.38418579102E-05;
2537074197350,0.999991357327,0.00156493752729,0.00371355307288,0.0010534292087,-0.0254762135446,-9.80731868744,-0.0289881378412,0.000621378363576,-0.00395625736564,-0.0028803946916;
2537076300000,0.999991416931,0.00156382215209,0.00371218030341,0.00105765566695,-0.0284512359649,-9.80436229706,-0.0360576435924,0.00109225511551,-0.0033795835916,-0.000905990658794;
2537078361990,0.999991416931,0.00156819447875,0.00371413957328,0.00106189306825,-0.0430014058948,-9.81421470642,-0.0593149587512,-0.00156909227371,-0.00340044498444,0.00348687195219;
2537081702040,0.999991416931,0.00156387337483,0.0037152194418,0.00106876739301,-0.013171363622,-9.83620262146,-0.0567411407828,-0.000876188452821,-0.00548511743546,-0.00347644090652;
2537083686000,0.999991416931,0.00155923876446,0.00371536123566,0.00107620749623,0.00667060213163,-9.81094264984,-0.0829251855612,-0.000126659855596,-0.00593811273575,-0.00372976087965;
2537085737810,0.999991416931,0.00155570043717,0.00371875194833,0.00107945757918,-0.00775111047551,-9.80950546265,-0.0866304710507,-0.00271946238354,-0.00258535216562,-0.0028371817898;
2537087804570,0.999991416931,0.00155809114221,0.00371539988555,0.00108071381692,-0.0347490422428,-9.84558582306,-0.120758451521,0.00268220901489,-0.00101625919342,0.00190585863311;
2537091951440,0.999991416931,0.00155239307787,0.00371526763774,0.00108161952812,-0.0077440883033,-9.81945419312,-0.0956629887223,9.98378018267E-05,-0.000707805156708,-0.00456124544144;
2537094067370,0.999991416931,0.00154915393796,0.00371566298418,0.00108025560621,-0.0230508707464,-9.82915782928,-0.0884671136737,-0.000317394704325,0.00110119557939,-0.00258684135042;
2537096110630,0.999991297722,0.00155373255257,0.00371365388855,0.00108276307583,-0.0298865959048,-9.82280921936,-0.0998219922185,0.00160783552565,-0.00202208780684,0.00365376542322;
2537099961710,0.999991297722,0.00155718100723,0.00371417729184,0.00108509988058,-0.0116253867745,-9.82620716095,-0.0928385034204,-0.000418722629547,-0.00187903642654,0.00275224470533;
2537101331880,0.999991297722,0.00155411544256,0.00371339544654,0.00108398322482,-0.0640802457929,-9.80198955536,-0.125661239028,0.000624358654022,0.000901520310435,-0.0024497511331;
2537103285760,0.999991297722,0.00155540276319,0.00371199799702,0.00108163489494,0.00499379588291,-9.82117652893,-0.109537690878,0.00112205755431,0.00187307596207,0.00103563081939;
2537106362750,0.999991297722,0.00156074028928,0.00371432676911,0.00108154409099,-0.0216102488339,-9.82207107544,-0.0799218043685,-0.00185817491729,5.96046447754E-05,0.00427216291428;
2537108433070,0.999991297722,0.00155751605053,0.00371875916608,0.00108334375545,-0.00986127927899,-9.80781745911,-0.108960874379,-0.00355094624683,-0.0014245507773,-0.00258088088594;
2537111565650,0.999991297722,0.00155342253856,0.00371502316557,0.00108737836126,-0.0137366205454,-9.82099342346,-0.129793301225,0.0029802324716,-0.00322014139965,-0.0032901763916;
2537113670770,0.999991297722,0.0015530801611,0.00370802357793,0.00109045160934,-0.0238713547587,-9.8353099823,-0.136452287436,0.00559538556263,-0.00246614171192,-0.000289082556264;
2537115711730,0.999991357327,0.00154610350728,0.0037039599847,0.00108899385668,0.00216392031871,-9.82161331177,-0.114736706018,0.00324696255848,0.00118166196626,-0.00558048440143;
2537119471940,0.999991357327,0.00154228578322,0.00370007148013,0.00108702934813,-0.0164173971862,-9.80796337128,-0.0955475494266,0.00310987234116,0.00157803297043,-0.00305175804533;
2537121547870,0.999991357327,0.00153418933041,0.00369285908528,0.00109360297211,-0.0117271263152,-9.81018066406,-0.11027033627,0.00575482891873,-0.00524371769279,-0.006502866745;
2537123636200,0.999991416931,0.00152866216376,0.00368452165276,0.00109344674274,-0.00654300116003,-9.83005428314,-0.131306171417,0.00666529033333,0.000131130233058,-0.00442862510681;
2537125838480,0.99999153614,0.00152684550267,0.0036747935228,0.0010969460709,-0.0236693806946,-9.82458782196,-0.110220469534,0.00777691602707,-0.00280588888563,-0.00147223484237;
2537127776870,0.99999153614,0.00152699032333,0.00366892409511,0.00109608168714,0.0246140286326,-9.84231853485,-0.0583803877234,0.0046968460083,0.000683963298798,0.000113248846901;
2537131937310,0.99999153614,0.00152593059465,0.00366160157137,0.00110052060336,-0.0268790293485,-9.81246948242,-0.0816814601421,0.00585168646649,-0.00355690717697,-0.000867247581482;
2537133996540,0.999991595745,0.00152910139877,0.00365250953473,0.00110197602771,-0.0141290035099,-9.84969329834,-0.0504847615957,0.00727474596351,-0.0011846421985,0.00252425624058;
2537136111490,0.999991595745,0.00152063940186,0.0036517821718,0.00110378256068,-0.0045725107193,-9.81647396088,-0.0624158531427,0.000572204648051,-0.00142157077789,-0.00677555799484;
2537138158770,0.999991595745,0.00151598523371,0.00364874862134,0.00110861752182,-0.0267131142318,-9.80551242828,-0.0616968721151,0.00241696834564,-0.00385791016743,-0.00374019169249;
2537141249110,0.999991595745,0.00151232804637,0.00364278163761,0.00110914150719,-0.0130888186395,-9.81056690216,-0.0356398299336,0.00476986216381,-0.000415742397308,-0.00293254852295;
2537143331000,0.999991595745,0.00151035387535,0.00363872759044,0.00111563398968,-0.0125196920708,-9.8078546524,-0.0209252294153,0.00323355197906,-0.00519305514172,-0.00160187459551;
2537146506190,0.99999165535,0.00151518837083,0.00363375758752,0.00112199585419,-0.0487682335079,-9.81469726562,-0.0587555356324,0.00397264957428,-0.00510960863903,0.00384449982084;
2537148531880,0.99999165535,0.00151303329039,0.00363302417099,0.00112638180144,-0.0213141348213,-9.80903530121,-0.0456487163901,0.000579655170441,-0.00350326253101,-0.00173747551162;
2537151592870,0.99999165535,0.00151033687871,0.00363267306238,0.00112749927212,-0.0160701368004,-9.81666469574,-0.0480821877718,0.000277161598206,-0.000886619149242,-0.00216066860594;
2537153711580,0.99999165535,0.00150980509352,0.00363186048344,0.00112492381595,-0.0113262245432,-9.82661247253,-0.0567038059235,0.000652670918498,0.00206083059311,-0.000418722658651;
2537155823300,0.999991595745,0.0013719429262,0.00371481757611,0.00111034850124,-0.0291701052338,-9.82790470123,-0.0737947970629,-0.00647157477215,0.00296235084534,0.000976025941782;
2537157928300,0.999991595745,0.001368836849,0.00372259016149,0.00111340126023,-0.034522049129,-9.82347583771,-0.0846183896065,-0.00622421642765,-0.00242441915907,-0.00248700380325;
2537162138050,0.999991595745,0.00136866478715,0.00372768798843,0.00111876777373,-0.0278863999993,-9.83672618866,-0.0985133722425,-0.00408440735191,-0.00428706360981,-0.000149011597387;
2537164241010,0.999991595745,0.00136610853951,0.00373011059128,0.0011173072271,-0.0116024119779,-9.81566905975,-0.092780508101,-0.00193864130415,0.00117868196685,-0.00203847885132;
2537166453680,0.99999153614,0.00136738922447,0.00373218744062,0.00112371647265,-0.0177582409233,-9.83734130859,-0.0847449377179,-0.00166743970476,-0.00512897921726,0.00100731838029;
2537169169880,0.99999153614,0.00136669585481,0.00372766749933,0.00112820381764,-0.0409532561898,-9.82648277283,-0.115877717733,0.00361055135727,-0.00359266996384,-0.000572204531636;
2537171160200,0.99999153614,0.00135990639683,0.0037252525799,0.00113145762589,-0.034681905061,-9.84224128723,-0.118839904666,0.00192224979401,-0.0025853512343,-0.00544339371845;
2537173262880,0.99999153614,0.00136130314786,0.00373076414689,0.00113808910828,-0.017355484888,-9.83621883392,-0.0980864539742,-0.0044152145274,-0.00530332326889,0.00110268604476;
2537176489980,0.99999153614,0.00136100128293,0.00372583279386,0.00114401779138,-0.0308759734035,-9.82033157349,-0.107817143202,0.00393837690353,-0.00474751042202,-0.000263750524027;
2537178683070,0.99999153614,0.00136408023536,0.00372624280863,0.00114363990724,-0.0241826325655,-9.85376262665,-0.116129800677,-0.000324845255818,0.000293552875519,0.00246465229429;
2537180838710,0.999991595745,0.00136185623705,0.00371737522073,0.00114841945469,-0.019846862182,-9.8126783371,-0.103085048497,0.00708699272946,-0.00382661819458,-0.00180155038834;
2537182826900,0.999991595745,0.0013598438818,0.0037151100114,0.00114554783795,-0.0338155254722,-9.80066680908,-0.109199151397,0.00181347143371,0.00230073928833,-0.0016033652937;
2537186955460,0.999991595745,0.00135866529308,0.00370825990103,0.00114398961887,-0.0268641486764,-9.83585834503,-0.0888788923621,0.0054806470871,0.00124275672715,-0.000944733677898;
2537188942010,0.999991595745,0.00135373149533,0.00370460608974,0.00114347203635,-0.0340504385531,-9.82195854187,-0.0907479524612,0.00291913747787,0.000424683094025,-0.00394880818203;
2537191074200,0.999991595745,0.0013473740546,0.00369907380082,0.001145226066,-0.0356260798872,-9.82416439056,-0.10825856775,0.00441819475964,-0.00139027833939,-0.0050961971283;
2537193179590,0.999991595745,0.0013495843159,0.00369589775801,0.00115007697605,-0.0110228536651,-9.81154441833,-0.0751467868686,0.00253766798414,-0.00389069318771,0.00175088678952;
2537197216870,0.99999165535,0.00134387565777,0.00369636085816,0.00115281634498,-0.0263049975038,-9.81060886383,-0.0769825801253,-0.000378489523428,-0.00217407941818,-0.00457465648651;
2537200975640,0.999991714954,0.00134765915573,0.00368746859021,0.00115618424024,-0.018498186022,-9.80026245117,-0.0997050926089,0.00711381528527,-0.00271499156952,0.00300854467787;
2537202436900,0.999991714954,0.00134417915251,0.00368263269775,0.00116461527068,-0.0330247916281,-9.82970142365,-0.0845909491181,0.0038564207498,-0.00673979520798,-0.0028133392334;
2537203498850,0.999991714954,0.00134529604111,0.00368566741236,0.00116943207104,-0.0435219220817,-9.83843231201,-0.0779567062855,-0.00243186973967,-0.00385344028473,0.000882148800883;
2537206631280,0.999991714954,0.00134280580096,0.00368002662435,0.00117322802544,-0.02484809421,-9.81071662903,-0.0659908428788,0.00450611114502,-0.00303536630236,-0.00200867676176;
2537208669150,0.999991714954,0.0013455679873,0.00368076749146,0.00117188889999,-0.0315016657114,-9.83043289185,-0.0622775629163,-0.000588595925365,0.00106394302566,0.00221431255341;
2537210757040,0.999991714954,0.00134844449349,0.00367710762657,0.00117137795314,-0.00115912593901,-9.82536125183,-0.037705425173,0.00293105863966,0.000396370887756,0.00229924917221;
2537212800790,0.999991714954,0.00134862912819,0.00367210805416,0.00117594527546,-0.0403324589133,-9.8138999939,-0.0849335938692,0.00399500085041,-0.00365972518921,0.000129640116938;
2537217128970,0.999991714954,0.00135128980037,0.00367264822125,0.00117837078869,0.00144946586806,-9.83783626556,-0.078718572855,-0.000432133761933,-0.00194758200087,0.002121925354;
2537219160150,0.999991714954,0.00135167897679,0.00367087335326,0.00118131365161,-0.0143666369841,-9.83257865906,-0.0813969522715,0.00141710042953,-0.00235736370087,0.00030100348522;
2537221224540,0.999991714954,0.00134988466743,0.00367560633458,0.0011811775621,-0.0144070163369,-9.8325176239,-0.0862337425351,-0.00378787494265,0.000119209274999,-0.00143051124178;
2537224588240,0.999991714954,0.00135061738547,0.00367403449491,0.00118034949992,-0.0292503386736,-9.80770587921,-0.0797797888517,0.0012591482373,0.000658631324768,0.000587105809245;
2537226326830,0.999991714954,0.00134940107819,0.00367432041094,0.00118400156498,-0.0124039510265,-9.8202047348,-0.0723835676908,-0.000233948230743,-0.00291764759459,-0.000983476755209;
2537228197080,0.999991714954,0.00134850293398,0.00368100288324,0.00118911953177,-0.0135252932087,-9.82712936401,-0.0962021276355,-0.00535249616951,-0.00408440735191,-0.000727176608052;
2537232229170,0.999991714954,0.00134768837597,0.00368217565119,0.00119036843535,-0.00201669312082,-9.80710411072,-0.0856868475676,-0.000940263213124,-0.000995397334918,-0.000654160859995;
2537234258130,0.999991714954,0.0013475024607,0.00367660308257,0.00119118497241,-0.0145100550726,-9.84807777405,-0.107548154891,0.00445693731308,-0.000658631382976,-0.000156462192535;
2537236337030,0.999991595745,0.00134938419797,0.00367798050866,0.00119072513189,-0.0300060659647,-9.80115509033,-0.108769677579,-0.00109970581252,0.00036358833313,0.00150799751282;
2537238393550,0.999991595745,0.00134356121998,0.00368119822815,0.0011931983754,-0.0304514430463,-9.81538200378,-0.121221601963,-0.00258237123489,-0.00195801304653,-0.00466257380322;
2537241584740,0.999991595745,0.00134396075737,0.00367847201414,0.001197106787,-0.0141465216875,-9.80067825317,-0.104105658829,0.00217705988325,-0.00313073396683,0.000305473804474;
2537243639760,0.999991595745,0.00134271464776,0.00367420865223,0.00120128365234,-0.00929218810052,-9.80934047699,-0.0993965864182,0.00340491533279,-0.00334233068861,-0.00101327896118;
2537245717500,0.999991595745,0.00133781170007,0.00367422704585,0.00120169087313,0.0176081731915,-9.82846641541,-0.0987475067377,-1.9371507733E-05,-0.000311434268951,-0.00392347574234;
2537247851930,0.999991595745,0.00133474089671,0.00367038766854,0.00120619358495,0.00667613185942,-9.83483219147,-0.0891290381551,0.00306367874146,-0.00359714031219,-0.00247359299101;
2537251892620,0.999991595745,0.0013309327187,0.00366923236288,0.00121012330055,-0.0211926121265,-9.81517982483,-0.0946056768298,0.000916421471629,-0.00313371419907,-0.0030592083931;
2537253955960,0.999991595745,0.00132887158543,0.00366592733189,0.00120318983681,-0.0269654300064,-9.82281017303,-0.098354510963,0.0026494266931,0.00554919242859,-0.00163167726714;
2537255964580,0.99999165535,0.00132984737866,0.00365684484132,0.00120163185056,-0.0227162055671,-9.82517147064,-0.100732199848,0.0072687859647,0.00123381591402,0.000776350381784;
2537258052940,0.99999165535,0.0013320853468,0.00365366414189,0.00120185234118,-0.00735138729215,-9.80946445465,-0.0894279554486,0.00254660844803,-0.000186264514923,0.00178664934356;
2537262183810,0.99999165535,0.00133487035055,0.00364739377983,0.00120904413052,0.00330059439875,-9.81770324707,-0.0781081467867,0.00501126050949,-0.0057682399638,0.00220090174116;
2537264220050,0.99999165535,0.00133947236463,0.0036430193577,0.00121253076941,-0.00284426053986,-9.82312583923,-0.0666592940688,0.00350028229877,-0.00280737853609,0.00366717530414;
2537266298050,0.999991714954,0.00133913871832,0.00363457319327,0.00121729099192,0.00679552089423,-9.79496383667,-0.0552074536681,0.00675171706825,-0.00381618808024,-0.000289082614472;
2537268397790,0.999991714954,0.00133481016383,0.00363093987107,0.00121972337365,-0.0123129459098,-9.8007144928,-0.0589732527733,0.00289976596832,-0.0019371509552,-0.00347346137278;
2537273217820,0.999991714954,0.00132971897256,0.00362561549991,0.00122138136066,-0.0252977479249,-9.79593467712,-0.0597686395049,0.00425279140472,-0.00131726276595,-0.00408291863278;
2537273529410,0.999991714954,0.00132915028371,0.00362727278844,0.00122126273345,0.0116996001452,-9.81659317017,-0.0482884719968,-0.00132620346267,9.83476784313E-05,-0.000452995329397;
2537281521950,0.999991774559,0.00133107067086,0.00362579314969,0.0012181858765,0.0086230924353,-9.82826328278,-0.0763123482466,0.00118911266327,0.00245422148146,0.0015437604161;
2537282708160,0.999991774559,0.00133490690496,0.00362660945393,0.00122131907847,-0.00827120989561,-9.80713367462,-0.0842373222113,-0.000652670860291,-0.00251680612564,0.00306069920771;
2537283183030,0.999991774559,0.00133212015498,0.00362774962559,0.00122266437393,-0.0383128523827,-9.83685302734,-0.0888989195228,-0.000916421471629,-0.00106692314148,-0.00223219394684;
2537283540290,0.999991774559,0.00133191479836,0.00362588441931,0.00123272289056,-0.0108862649649,-9.83083248138,-0.0643065869808,0.00148117530625,-0.00804811529815,-0.000195205226191;
2537287088290,0.999991774559,0.00132950174157,0.00362328160554,0.00123153976165,0.00259265257046,-9.80110740662,-0.105622060597,0.00208169221878,0.000950694142375,-0.00192970072385;
2537290125770,0.999991774559,0.00132969440892,0.00362421758473,0.0012366999872,-0.0175105445087,-9.82880592346,-0.117993816733,-0.000753998814616,-0.00412762211636,0.000140070915222;
2537295144740,0.999991774559,0.00132818089332,0.00362173956819,0.00124278571457,-0.0320267267525,-9.78903198242,-0.121050044894,0.00197440409102,-0.00486671924591,-0.00123083591461;
2537295541250,0.999991774559,0.00131927034818,0.00361786386929,0.00124670402147,-0.0136421909556,-9.80014324188,-0.109769634902,0.0030875208322,-0.00311285257339,-0.00714361714199;
2537297354380,0.999991834164,0.00131901877467,0.00361037859693,0.00125025992747,-0.0376535505056,-9.76584720612,-0.0961568579078,0.00598430633545,-0.00285208248533,-0.000219047113205;
2537299442980,0.999991834164,0.00132236664649,0.00361376116052,0.00125057448167,-0.0348749384284,-9.81063079834,-0.118810638785,-0.00270307064056,-0.000257790088654,0.0026807191316;
2537301539160,0.999991893768,0.00131733331364,0.00360549613833,0.00124913628679,-0.0222348552197,-9.79544639587,-0.102537035942,0.00660866638646,0.00115633010864,-0.00403076410294;
2537303651710,0.999991893768,0.0013144480763,0.00360236107372,0.00124804174993,0.00461656693369,-9.80839157104,-0.0966172665358,0.00250637531281,0.000880658801179,-0.00230818986893;
2537305784290,0.999991893768,0.00130987225566,0.00360104371794,0.00124830065761,-0.0239665415138,-9.8219871521,-0.0865320935845,0.00104904174805,-0.000195205226191,-0.00366270565428;
2537308526190,0.999991893768,0.00130474090111,0.00360035058111,0.00124920485541,-0.0190444756299,-9.81050109863,-0.12643776834,0.000548362731934,-0.000709295272827,-0.00410825060681;
2537317029940,0.999991893768,0.00130022631492,0.00359312607907,0.00125151395332,-0.0370630472898,-9.82365131378,-0.111116096377,0.00577271031216,-0.00184178375639,-0.00362545298412;
2537317550190,0.999991893768,0.00129546958487,0.00359398173168,0.00125352153555,-0.0328088514507,-9.79924201965,-0.108735658228,-0.000691413821187,-0.0015914440155,-0.0038102271501;
2537317806700,0.999991953373,0.00129157991614,0.00359124061652,0.0012481972808,0.00474998541176,-9.81617546082,-0.0862238109112,0.00219494104385,0.00426769303158,-0.00309944176115;
2537319217030,0.999991953373,0.00129000889137,0.0035916196648,0.00124602217693,-0.0379132404923,-9.8167181015,-0.0902311429381,-0.000302493572235,0.0017449259758,-0.00125020754058;
2537321242460,0.999991953373,0.0012910090154,0.00359204271808,0.00124822452199,-0.0132462214679,-9.80879020691,-0.107493318617,-0.000339746504324,-0.00176429748535,0.000794232008047;
2537323251160,0.999991953373,0.00129564874806,0.00359328184277,0.00124806421809,0.000308461720124,-9.79319763184,-0.0860992223024,-0.000986456987448,0.000116229057312,0.00371336960234;
2537326377800,0.999991953373,0.00129548052792,0.00359182804823,0.00125156296417,-0.0178009159863,-9.80571556091,-0.084151096642,0.00115931034088,-0.00279992842115,-0.000146031394252;
2537329592320,0.999991953373,0.00129660288803,0.00358887156472,0.00125442550052,-0.0505432374775,-9.80554199219,-0.105775803328,0.00236332369968,-0.00229626847431,0.000886619149242;
2537331088660,0.999991953373,0.00130021886434,0.00358347268775,0.0012542528566,-0.0185362379998,-9.79754924774,-0.0441565290093,0.00432282686234,0.000122189536341,0.0028878452722;
2537332992030,0.999991953373,0.00130061095115,0.00358402333222,0.0012536579743,-0.0531332790852,-9.79875946045,-0.0710953250527,-0.000439584284322,0.000475347042084,0.000315904646413;
2537338484890,0.999991953373,0.0012966808863,0.00358424382284,0.00124959310051,-0.0533221401274,-9.81230735779,-0.101511463523,-0.000175833702087,0.00326335453428,-0.00313222431578;
2537339620430,0.999991953373,0.00129285547882,0.00357663678005,0.00125589466188,-0.0498919636011,-9.82435512543,-0.0944010093808,0.00607520295307,-0.00503808213398,-0.00308603001758;
2537341634720,0.999991953373,0.00128918990958,0.00357674527913,0.00125908933114,-0.0145077239722,-9.81941795349,-0.100394316018,-9.38773227972E-05,-0.00254511833191,-0.00294148921967;
2537343741160,0.999991953373,0.00128394260537,0.00357199227437,0.0012594651198,-0.0352125912905,-9.82454586029,-0.116368241608,0.00379681587219,-0.000290572672384,-0.00420361757278;
2537347228590,0.999992012978,0.00127540912945,0.00356471724808,0.00125981052406,-0.0398150160909,-9.82238197327,-0.0968399941921,0.00581145333126,-0.000259280204773,-0.00683516263962;
2537348251270,0.999992012978,0.00127226021141,0.00356352259405,0.00126013508998,-0.0359573401511,-9.80437374115,-0.0792865753174,0.000952184200287,-0.000251829624176,-0.00252127670683;
2537353235200,0.999992012978,0.001269944245,0.00356553005986,0.0012596299639,-0.0285946186632,-9.80983924866,-0.061319001019,-0.00160783540923,0.00041276216507,-0.00184923410416;
2537353492430,0.999992012978,0.00127216312103,0.00356325181201,0.00126207410358,-0.0481267049909,-9.78027534485,-0.0942974388599,0.00182241213042,-0.00196397304535,0.00176578771789;
2537357107690,0.999992012978,0.00127280678134,0.00356061779894,0.00126453640405,-0.015891354531,-9.76753807068,-0.069739587605,0.00210553477518,-0.00197440385818,0.000505149364471;
2537359166510,0.999992012978,0.00126981956419,0.00355726294219,0.00126767763868,-0.0278842728585,-9.82378768921,-0.0969704240561,0.00267773866653,-0.00250786542892,-0.00240206741728;
2537362298020,0.999992012978,0.0012667280389,0.00355361960828,0.0012748943409,-0.0482800342143,-9.8052520752,-0.130986794829,0.00290423631668,-0.0057682399638,-0.00249743484892;
2537369755710,0.999992012978,0.00126226502471,0.00355193740688,0.00128371466417,-0.0217169094831,-9.82129573822,-0.105067782104,0.00133216392715,-0.00704526901245,-0.00359714054503;
2537370178180,0.999992072582,0.00125882413704,0.00354952691123,0.00128214072902,-0.0107563249767,-9.81975746155,-0.110370315611,0.0019267203752,0.00126659881789,-0.00275075505488;
2537372051420,0.999992072582,0.00125796056818,0.00354795157909,0.00128389277961,-0.0152063509449,-9.81531143188,-0.125055417418,0.00125765800476,-0.00140070915222,-0.00069737440208;
2537372656800,0.999992072582,0.00126113276929,0.00355192297138,0.00128692260478,-0.0170621592551,-9.82695674896,-0.11233137548,-0.00317692756653,-0.00242888950743,0.00253319763578;
2537372825320,0.999992072582,0.00126606668346,0.00355430552736,0.00128875591327,-0.0394783690572,-9.85336208344,-0.112711429596,-0.00190287840087,-0.00147819519043,0.00394433783367;
2537376832900,0.999992072582,0.00126451347023,0.00355078466237,0.00129069027025,-0.0317627638578,-9.82280445099,-0.0997685790062,0.00281333876774,-0.00154674064834,-0.00125169742387;
2537380171800,0.999992072582,0.00126626412384,0.00354782654904,0.00129267340526,-0.0328350514174,-9.82173061371,-0.110711015761,0.00236630463041,-0.00159442459699,0.00139176845551;
2537384185000,0.999992072582,0.001264952356,0.00354505726136,0.001291007502,-0.00549924885854,-9.82743453979,-0.109457202256,0.00221580290236,0.00133365392685,-0.00104755163193;
2537386340230,0.999992072582,0.00125807814766,0.00353975896724,0.00128772261087,-0.0393583029509,-9.83045864105,-0.102076426148,0.00423491047695,0.00264197634533,-0.00549554964527;
2537387515140,0.999992132187,0.0012543075718,0.0035406909883,0.00129370891955,-0.0445225909352,-9.86168956757,-0.0970484912395,-0.000755488988943,-0.00477731274441,-0.00303238700144;
2537389269760,0.999992132187,0.00125537987333,0.0035382527858,0.00130368408281,-0.024948624894,-9.8292350769,-0.0822598487139,0.00194162153639,-0.00798553414643,0.000827014620882;
2537391322980,0.999992132187,0.00125628430396,0.00353269698098,0.00130720552988,-0.030738202855,-9.81339359283,-0.0854771137238,0.00444203661755,-0.00282526016235,0.000707805156708;
2537393391910,0.999992132187,0.00125986104831,0.00353410979733,0.00131313467864,-0.0303679034114,-9.80469608307,-0.0926649421453,-0.00113248836715,-0.00475198030472,0.00284612202086;
2537396558150,0.999992132187,0.00126009481028,0.00353259616531,0.00131439114921,-0.00915992725641,-9.80048751831,-0.0789345577359,0.00120997440536,-0.0010073184967,0.000181794166565;
2537405501790,0.999992132187,0.00126257864758,0.00352868600748,0.00131581176538,-0.0120827956125,-9.78424549103,-0.0745603591204,0.00312924408354,-0.00114738952834,0.00197887420654;
2537405937050,0.999992132187,0.00126658147201,0.00352838635445,0.00131990818772,-0.027800898999,-9.80252075195,-0.0721989572048,0.000239908709773,-0.00328868627548,0.0031903386116;
2537406371060,0.999992132187,0.00125986651983,0.00353070907295,0.00131440453697,-0.0148822497576,-9.80620956421,-0.0817994847894,-0.00185966526624,0.00442415475845,-0.00535398768261;
2537411144880,0.999990403652,0.00128019426484,0.0039877993986,0.00131913332734,-0.0150936162099,-9.80190086365,-0.0409611389041,-0.00295490026474,-0.00154227029998,0.00128000986297;
2537411359630,0.999990403652,0.0012826648308,0.0039938907139,0.00131711957511,-0.0383385010064,-9.80921840668,-0.0760200917721,-0.00486820936203,0.0016093251761,0.00198930525221;
2537411477050,0.999990403652,0.00128410779871,0.00399037171155,0.00132046022918,-0.0179218556732,-9.79940891266,-0.0916744321585,0.0028133392334,-0.0026807191316,0.00113993894774;
2537413577940,0.999990403652,0.00128557696007,0.00399061152712,0.00132370134816,-0.0399645008147,-9.83947563171,-0.112186416984,-0.000193715139176,-0.00259727239609,0.00116527092177;
2537416699770,0.999990403652,0.00128302758094,0.00399206159636,0.00132480484899,-0.0414230786264,-9.80984592438,-0.105397544801,-0.00116378068924,-0.000873208104167,-0.00204145931639;
2537420129540,0.999990403652,0.0012801848352,0.00399157963693,0.0013245678274,-0.0318027585745,-9.82849025726,-0.106516040862,0.000382959871786,0.00019818545843,-0.00227391719818;
2537421103080,0.999990403652,0.00127711892128,0.00398982083425,0.00132586306427,0.00569275347516,-9.81617546082,-0.0866724774241,0.00140219961759,-0.00102818035521,-0.00245869206265;
2537423104030,0.999990403652,0.00127317430452,0.0039948807098,0.00132861966267,-0.0240090470761,-9.83820438385,-0.093339137733,-0.00405460642651,-0.00218749046326,-0.00315904640593;
2537429745290,0.999990403652,0.00127190595958,0.00399482250214,0.00132908287924,-0.0183750577271,-9.83754348755,-0.107567384839,4.47034835815E-05,-0.000366568594472,-0.00101625930984;
2537435261950,0.999990403652,0.00127913814504,0.003988197539,0.00133328139782,-0.00204999768175,-9.84393501282,-0.090492375195,0.00530332326889,-0.00338852405548,0.00576525973156;
2537439519530,0.999990403652,0.00127205543686,0.0039835870266,0.00133662857115,0.00590263167396,-9.80495834351,-0.0619285143912,0.0036776070483,-0.00265985797159,-0.0056818141602;
2537440377480,0.999990403652,0.00127660587896,0.00398024963215,0.00133362400811,0.0118200331926,-9.81664657593,-0.0857648998499,0.00267773889937,0.00238567590714,0.00364631437697;
2537441166820,0.999990463257,0.00127717817668,0.00397940864787,0.00133111921605,4.25715916208E-05,-9.82405567169,-0.0691128522158,0.000676512718201,0.00200122618116,0.00046491631656;
2537442264390,0.999990463257,0.00127147813328,0.00397191382945,0.00133224064484,-0.0134303178638,-9.80286121368,-0.0807843878865,0.00598877808079,-0.000886619265657,-0.00457167625427;
2537444244340,0.999990463257,0.00127195764799,0.00397519115359,0.00133777502924,0.00218926765956,-9.81079292297,-0.0976134240627,-0.00262707495131,-0.00442564487457,0.000369548855815;
2537445540540,0.999990463257,0.00126993190497,0.00397128565237,0.00133947317954,-0.0394902527332,-9.78736400604,-0.101018950343,0.00312030338682,-0.00135600566864,-0.00163018715102;
2537447223860,0.999990463257,0.00126814155374,0.00397352455184,0.00134439684916,-0.0226748436689,-9.78989601135,-0.0864526107907,-0.00179707980715,-0.00393092585728,-0.00144541251939;
2537449396520,0.999990463257,0.00126537599135,0.00397685263306,0.00135083438363,0.0110448589548,-9.81392860413,-0.0725389793515,-0.00267177820206,-0.00513792037964,-0.00222921394743;
2537452131030,0.999990463257,0.00126445409842,0.00397494621575,0.00134882389102,-0.0119383605197,-9.82971763611,-0.078068472445,0.00152587902267,0.00160932540894,-0.000733137130737;
2537454203750,0.999990463257,0.00126331299543,0.00397001812235,0.00135012797546,-0.0350728183985,-9.81857967377,-0.0940189361572,0.00393986748531,-0.00104457139969,-0.000922381936107;
2537456244810,0.999990522861,0.00125714496244,0.00396315706894,0.00135085184593,-0.0024357882794,-9.81996822357,-0.0908995866776,0.00548213720322,-0.000566244067159,-0.00494420481846;
2537458334240,0.999990522861,0.00125602609478,0.00396283855662,0.00135275581852,-0.0239749941975,-9.84062576294,-0.0904258787632,0.000251829624176,-0.00151991844177,-0.000901520310435;
2537464159730,0.999990522861,0.00125831423793,0.00395859545097,0.00136136915535,-0.0248769409955,-9.8450717926,-0.0799055993557,0.00338852475397,-0.00690221879631,0.00179857038893;
2537465721280,0.999990522861,0.00125697115436,0.00395509973168,0.00136673648376,-0.0222836881876,-9.85580062866,-0.0610079020262,0.00278949714266,-0.00429302453995,-0.00109523546416;
2537468423200,0.999990463257,0.00125373760238,0.00394789036363,0.00136568036396,0.012539062649,-9.82786560059,-0.0677182078362,0.00576525973156,0.00084787607193,-0.00259131193161;
2537469044480,0.999990463257,0.00125670514535,0.00394135108218,0.00137007317971,-0.0177792217582,-9.85114097595,-0.092341683805,0.00523030757904,-0.00353008508682,0.00235289358534;
2537472689630,0.999990463257,0.00126052205451,0.00393732171506,0.00137299974449,-0.041470810771,-9.82838344574,-0.117794677615,0.00322461174801,-0.0023573639337,0.00303983711638;
2537476186870,0.999990463257,0.00126095686574,0.00393113587052,0.0013776543783,-0.0205424763262,-9.82359218597,-0.0708317607641,0.00494420528412,-0.00373125099577,0.000326335430145;
2537478747290,0.999990522861,0.00126011122484,0.00392719404772,0.00138102599885,-0.0398352853954,-9.81244564056,-0.0863611102104,0.00315010547638,-0.00269860005938,-0.000691413937602;
2537480110360,0.999990522861,0.00125846092124,0.00392444431782,0.0013838323066,-0.0113759469241,-9.82418632507,-0.059967905283,0.00219494104385,-0.00224262475967,-0.00133216392715;
2537481374260,0.999990522861,0.00125770410523,0.00392621662468,0.00138668180443,-0.0392947122455,-9.8234834671,-0.0855196714401,-0.00142157089431,-0.0022754073143,-0.000612437841482;
2537483561360,0.999990522861,0.00125014060177,0.00392369227484,0.00138738262467,-0.0133521705866,-9.8005771637,-0.0708146840334,0.00201016641222,-0.000539422035217,-0.00605583144352;
2537486602940,0.999990522861,0.00124450214207,0.00392349297181,0.00139251933433,-0.0234398785979,-9.76955318451,-0.0635465830564,0.00014901162649,-0.00409185886383,-0.00452697277069;
2537488671920,0.999990522861,0.00124001398217,0.00392712373286,0.00139641773421,-0.0114998612553,-9.75563526154,-0.0626617893577,-0.0029131770134,-0.00310093164444,-0.00359863066114;
2537493098440,0.999990522861,0.00123963621445,0.00392572255805,0.00139648641925,-0.0516102164984,-9.76342582703,-0.102278053761,0.00112056720536,-5.51342891413E-05,-0.000303983688354;
2537495272030,0.999990522861,0.0012355807703,0.00392741849646,0.00139888119884,-0.0324411951005,-9.8072347641,-0.1220857054,-0.00136345636565,-0.00190138840117,-0.00324994395487;
2537496962260,0.999990522861,0.00123076175805,0.0039234161377,0.00140636251308,-0.0208754464984,-9.81058597565,-0.118796989322,0.00318884849548,-0.00597387505695,-0.00388324283995;
2537499429140,0.999990522861,0.00122854509391,0.00391583330929,0.00140833633486,0.00545547483489,-9.79866504669,-0.108933985233,0.00606179237366,-0.00157952308655,-0.00178813945968;
2537501348770,0.999990522861,0.00122679129709,0.00391486892477,0.00141201342922,-0.0233724750578,-9.82698249817,-0.0694323480129,0.000765919568948,-0.00293701863848,-0.001415610197;
2537503359300,0.999990522861,0.0012231337605,0.00391110312194,0.0014227614738,-0.0193069390953,-9.83609104156,-0.109377875924,0.00299811386503,-0.00859051942825,-0.00296384119429;
2537507617500,0.999990582466,0.00122245121747,0.00390211842023,0.00142209918704,-0.0116686858237,-9.86667442322,-0.115205392241,0.00718832015991,0.000523030699696,-0.000554323254619;
2537509177290,0.999990582466,0.0012240888318,0.00389644503593,0.00142250116915,-0.0165128111839,-9.83891010284,-0.113703355193,0.00454038381577,-0.000332295894623,0.00130236137193;
2537512564840,0.999990582466,0.00122134108096,0.00388983427547,0.00141807808541,-0.0354337990284,-9.852602005,-0.0922035649419,0.00528991222382,0.00354051659815,-0.00219196104445;
2537516184980,0.999990642071,0.00121889950242,0.0038803552743,0.00142142327968,-0.0460741743445,-9.84341049194,-0.102529905736,0.00757724139839,-0.00267773936503,-0.00197440385818;
2537516665310,0.999990701675,0.00121760205366,0.00387333869003,0.00142625533044,-0.0181660521775,-9.83495235443,-0.0827660560608,0.00560730695724,-0.00386834214441,-0.00106096279342;
2537518778720,0.999990701675,0.00121664954349,0.00387029186822,0.00143265351653,-0.0516409277916,-9.80934524536,-0.0658565089107,0.00243037915789,-0.00511854840443,-0.0007852910785;
2537520854790,0.999990701675,0.00121699634474,0.00386465410702,0.00143738393672,-0.0210473518819,-9.80017280579,-0.0664975941181,0.00450611161068,-0.00379085540771,0.000256299972534;
2537522990060,0.999990701675,0.0012114829151,0.00386174907908,0.00143966672476,-0.0171352885664,-9.83123779297,-0.0723268836737,0.00231564044952,-0.00181198131759,-0.00442117452621;
2537527146480,0.99999076128,0.00121306546498,0.00385492690839,0.00143792200834,-0.0299699660391,-9.77781009674,-0.0972188785672,0.00546127557755,0.00138431799132,0.00126361835282;
2537529166840,0.99999076128,0.00121150200721,0.00385437323712,0.00143511651549,-0.0115979723632,-9.79373455048,-0.0827144831419,0.000444054690888,0.00224858545698,-0.00124275684357;
2537531247140,0.99999076128,0.0012114236597,0.00385091453791,0.00144102482591,-0.0321018844843,-9.81013774872,-0.0769112929702,0.00276118540205,-0.00472962856293,-8.49366188049E-05;
2537534481300,0.99999076128,0.00120719184633,0.00384633452632,0.00144371041097,-0.0194792971015,-9.79552268982,-0.0540790483356,0.0036567451898,-0.00213980674744,-0.00339895510115;
2537536677640,0.999990820885,0.00119717093185,0.00384471192956,0.00144457968418,-0.00171711039729,-9.7878818512,-0.0480635166168,0.00128597021103,-0.000666081963573,-0.00802129600197;
2537538869710,0.999990820885,0.00119956803974,0.00384840206243,0.00144594023004,-0.00150153494906,-9.79861068726,-0.0742919743061,-0.00295042945072,-0.00109225488268,0.00191777956206;
2537541259540,0.999990820885,0.00119410816114,0.00384736969136,0.00144927739166,-0.0121001210064,-9.82657623291,-0.102291233838,0.000816583633423,-0.00265389704145,-0.00437945174053;
2537544866000,0.999990820885,0.00119150814135,0.00385049800389,0.00145343923941,-0.035759691149,-9.81277275085,-0.0565605014563,-0.00250935554504,-0.0033184888307,-0.00208914279938;
2537546867320,0.999990820885,0.00118852686137,0.00385236623697,0.00145873916335,-0.0177936851978,-9.80283641815,-0.084156692028,-0.00150352716446,-0.00422895001248,-0.00239908718504;
2537548912510,0.999990820885,0.00118941336405,0.003848713357,0.00146165210754,-0.00856472365558,-9.80402851105,-0.0618397146463,0.00292062712833,-0.0023365020752,0.000695884169545;
2537550986530,0.999990820885,0.00118663324974,0.00384508725256,0.00145660503767,0.00829836167395,-9.83319282532,-0.0634730681777,0.00290274643339,0.00404268503189,-0.00221282243729;
2537553089270,0.999990820885,0.00118674302939,0.00384382205084,0.0014527119929,-0.00920460280031,-9.84001731873,-0.0995386615396,0.00101625930984,0.00311285257339,9.83476711554E-05;
2537557613280,0.999990880489,0.00118329771794,0.00383699941449,0.00145904847886,-0.0115616191179,-9.83338546753,-0.0932425633073,0.00544786453247,-0.00506490608677,-0.0027835376095;
2537559400470,0.999990880489,0.00118096615188,0.00383974611759,0.00145681982394,-0.00140816287603,-9.86833000183,-0.0940269231796,-0.00219792127609,0.00179260969162,-0.00185519468505;
2537561454270,0.999990880489,0.00117717450485,0.00383409415372,0.00145291804802,-0.0127217574045,-9.83114433289,-0.120326131582,0.00452101277187,0.00312775420025,-0.00302791642025;
2537564866380,0.999990880489,0.00117765262257,0.00383594585583,0.00145978783257,-0.000540813256521,-9.86012840271,-0.0996896550059,-0.00148713588715,-0.00549554871395,0.00036358833313;
2537566657880,0.999990880489,0.00116970262025,0.00383672467433,0.00146585982293,-0.0223926045001,-9.83215522766,-0.0771021023393,-0.000637769699097,-0.00483244797215,-0.00637769838795;
2537568555500,0.999990880489,0.00116427079774,0.00383553165011,0.00146337400656,0.0160150527954,-9.80124473572,-0.049162376672,0.000950694084167,0.00200420618057,-0.00433921860531;
2537571354180,0.999990880489,0.00116049672943,0.00383142521605,0.00146609020885,-0.0186239145696,-9.82117080688,-0.072279445827,0.00327825616114,-0.00216513872147,-0.00303238676861;
2537573393840,0.999990880489,0.00115779950283,0.00382777652703,0.00147391203791,0.00639970460907,-9.79625701904,-0.110388174653,0.00290870689787,-0.00625252723694,-0.00218600011431;
2537577850860,0.999990940094,0.00115603709128,0.00382826197892,0.00147546338849,-0.00267177028582,-9.79056930542,-0.107476770878,-0.00039190062671,-0.0012353064958,-0.0014141201973;
2537578084590,0.999990940094,0.001156811486,0.00382486125454,0.00148277112748,-0.0233154706657,-9.77147865295,-0.104420259595,0.00271499180235,-0.00585168646649,0.000593066215515;
2537581947470,0.999990940094,0.00115314451978,0.00382593274117,0.00148432876449,0.00707536982372,-9.82229709625,-0.0962529107928,-0.000862777349539,-0.00123381626327,-0.00293701910414;
2537583921870,0.999990940094,0.00115214276593,0.00382112897933,0.00148791086394,0.0151351066306,-9.79738426208,-0.0933125242591,0.00383853912354,-0.00286698364653,-0.000818073633127;
2537586015200,0.999990940094,0.00114448228851,0.00381583417766,0.00149674434215,-0.0392732322216,-9.78090286255,-0.0786338821054,0.00421851826832,-0.00704824924469,-0.00616163015366;
2537588072430,0.999990940094,0.00113897921983,0.00381712801754,0.00150190968998,-0.0420088469982,-9.8298664093,-0.0722005367279,-0.00104606151581,-0.00411421060562,-0.00441670464352;
2537592227370,0.999990940094,0.00113382656127,0.0038162493147,0.00150484719779,-0.0305953267962,-9.82971191406,-0.082243129611,0.000694393995218,-0.00233501172625,-0.00413209153339;
2537594281470,0.999990940094,0.00113353843335,0.00381111912429,0.00150834058877,-0.0143413040787,-9.82782363892,-0.0775699466467,0.00410080002621,-0.00279843760654,-0.000247359304922;
2537596871920,0.999990940094,0.00113315554336,0.0038138080854,0.00151304621249,-0.0204372536391,-9.86526012421,-0.0734441801906,-0.00215619802475,-0.00376105378382,-0.00031739482074;
2537598920900,0.999990940094,0.00112971512135,0.00381298991852,0.00152053323109,-0.0286443624645,-9.85322570801,-0.0794903486967,0.000643730163574,-0.00597983598709,-0.00277608656324;
2537600935320,0.999990940094,0.00112549006008,0.0038108646404,0.00151660176925,-0.0100371064618,-9.85398864746,-0.0919699221849,0.00169873272534,0.00315606640652,-0.00337064312771;
2537603075030,0.999990940094,0.0011272514239,0.00381529866718,0.00151672668289,-0.0056912410073,-9.82741737366,-0.0701225474477,-0.00354498648085,-0.000101327896118,0.00141412031371;
2537607196560,0.999990940094,0.00113062246237,0.00381137989461,0.00151306053158,-0.0223457328975,-9.82211399078,-0.117391839623,0.00314265512861,0.00291913747787,0.00270307064056;
2537609274460,0.999990940094,0.00112447049469,0.00380665832199,0.00151812087279,-0.00814666040242,-9.82243537903,-0.0861315280199,0.00376552343369,-0.00403374433517,-0.00494271563366;
2537614134890,0.999990940094,0.00112761929631,0.00380353606306,0.00152444222476,-0.033750873059,-9.79218482971,-0.0967960134149,0.0024959447328,-0.00506937410682,0.00249594449997;
2537614312120,0.999990940094,0.00111896218732,0.00380419986323,0.0015287582064,-0.00666703330353,-9.81913757324,-0.0809683576226,-0.00054538238328,-0.00342577672563,-0.00693797972053;
2537616193880,0.999990999699,0.00111919047777,0.00380306714214,0.00153101538308,-0.0133261755109,-9.80073165894,-0.0584737733006,0.000904500484467,-0.00180751096923,0.00017434360052;
2537618315650,0.999990999699,0.00111895590089,0.00379547988996,0.00153141014744,-0.0357401445508,-9.78871154785,-0.108606085181,0.00606924295425,-0.000321865081787,-0.00019818545843;
2537621509960,0.999990999699,0.00111744180322,0.00379638560116,0.0015308711445,-0.0289738997817,-9.80077934265,-0.0992476269603,-0.000725686608348,0.00043660402298,-0.00120848417282;
2537623528830,0.999990999699,0.00112678331789,0.00379441655241,0.00153066206258,-0.00946949329227,-9.80402183533,-0.105121567845,0.00158697366714,0.000137090668431,0.00747144129127;
2537625655770,0.999991059303,0.00112702453043,0.00379056762904,0.00153669191059,-0.0155681129545,-9.78159427643,-0.098284214735,0.00307410978712,-0.00482797622681,0.00016987323761;
2537627723790,0.999991059303,0.00112606806215,0.00379395717755,0.00154275307432,-0.0301065444946,-9.79480552673,-0.119245678186,-0.00271797226742,-0.004842877388,-0.000779330905061;
2537631839600,0.999991059303,0.00112411857117,0.00378940161318,0.00154649559408,-0.0557103082538,-9.79469013214,-0.0918923616409,0.00363886309788,-0.00299215340056,-0.00157654273789;
2537633889280,0.999991118908,0.00111953029409,0.00377930537798,0.00155254243873,-0.0315362773836,-9.82685279846,-0.0816624760628,0.00806599948555,-0.00483244657516,-0.00370144867338;
2537635938140,0.999991118908,0.00111879757605,0.00378058198839,0.00155238620937,-0.0203048661351,-9.80987548828,-0.0979555100203,-0.0010222196579,0.000128150000819,-0.000584125577006;
2537638218130,0.999991118908,0.00112463464029,0.00377886067145,0.00155595527031,-0.0190397500992,-9.82782840729,-0.120307691395,0.00138133775908,-0.00287443422712,0.00465661287308;
2537642134230,0.999991118908,0.00111772213131,0.00377260358073,0.00156023621093,-0.0198501646519,-9.81783390045,-0.113132059574,0.00499337958172,-0.00340938614681,-0.00555068254471;
2537644199140,0.999991118908,0.00111354142427,0.00376961729489,0.00156174250878,-0.020147677511,-9.83338356018,-0.0942180305719,0.00238269590773,-0.00119507312775,-0.00335276150145;
2537646308050,0.999991059303,0.00110796175431,0.003764515277,0.00156528363004,-0.0268079042435,-9.83678817749,-0.0908087044954,0.00407099770382,-0.002820789814,-0.00448077917099;
2537648375340,0.999991059303,0.00110523588955,0.00376163632609,0.00156286556739,-0.0128444721922,-9.8469619751,-0.078132763505,0.00230222963728,0.00194013153668,-0.00217705965042;
2537651722640,0.999991059303,0.00110992544796,0.0037604237441,0.00155973585788,-0.0327433273196,-9.84721183777,-0.103688195348,0.000979006406851,0.00248849391937,0.00375956296921;
2537653793690,0.999991059303,0.0011056024814,0.00375843793154,0.0015574923018,-0.0122226830572,-9.85454368591,-0.128027513623,0.00158548390027,0.00180602096952,-0.00345408986323;
2537655790560,0.99999153614,0.000930791778956,0.00368170673028,0.00154242105782,-0.00409587426111,-9.85148525238,-0.0591781325638,0.00448822975159,-0.00630915304646,0.000730157073122;
2537657850940,0.99999153614,0.000929517264012,0.0036819933448,0.00154092651792,-0.0229523293674,-9.85262966156,-0.089043147862,-0.000229477911489,0.0011995434761,-0.00101476919372;
2537661934180,0.99999153614,0.000929092406295,0.00368388136849,0.00154117564671,-0.053778976202,-9.811419487,-0.095374673605,-0.00151097774506,-0.000196695342311,-0.000338256388204;
2537663988170,0.99999153614,0.000927780987695,0.00368509301916,0.00154622388072,-0.0332582220435,-9.80362892151,-0.102114394307,-0.000974535942078,-0.00403374480084,-0.00106245279312;
2537666086700,0.99999153614,0.000918587960768,0.00367945339531,0.00154820096213,-0.0133143765852,-9.80708122253,-0.130715891719,0.00449866009876,-0.00155866146088,-0.00736713316292;
2537668110500,0.99999153614,0.0009172023274,0.0036739713978,0.0015505051706,-0.025257345289,-9.80625915527,-0.122052177787,0.00438243150711,-0.00184327363968,-0.00112205755431;
2537671320500,0.99999153614,0.000913481053431,0.00367229455151,0.001552959322,-0.0143693145365,-9.81676006317,-0.0808685421944,0.00133514415938,-0.00195354223251,-0.00298619223759;
2537674249390,0.99999153614,0.000910189701244,0.00366666191258,0.00155768264085,-0.0284507758915,-9.80551433563,-0.103029325604,0.00449866056442,-0.00377297424711,-0.00265389680862;
2537676297670,0.999991714954,0.000914254633244,0.00365699222311,0.00155574234668,-0.0198501404375,-9.81893730164,-0.101203471422,0.00774264428765,0.00153332983609,0.00324547360651;
2537678381730,0.999991714954,0.00091285421513,0.00365301175043,0.00155772385187,-0.00938428100199,-9.8034992218,-0.107925593853,0.00318139791489,-0.00158399343491,-0.00113099825103;
2537682274230,0.999991774559,0.000911956536584,0.00364464544691,0.00156388862524,-0.0302142146975,-9.82056427002,-0.086411178112,0.00668764160946,-0.0049352645874,-0.000746548175812;
2537685822680,0.999991774559,0.000914621166885,0.00363686587662,0.00156801624689,-0.00815260503441,-9.80823802948,-0.0718020349741,0.00622421503067,-0.00331550859846,0.00211000442505;
2537686022380,0.999991774559,0.00091301696375,0.00363637483679,0.00157227972522,-0.014690997079,-9.82612419128,-0.0580750741065,0.000387430220144,-0.00340640544891,-0.00129640102386;
2537688029370,0.999991834164,0.000916164484806,0.00362780829892,0.00157617777586,-0.00962817762047,-9.7924785614,-0.0674595460296,0.00685453414917,-0.00313371419907,0.0024959447328;
2537692312190,0.999991834164,0.000914212723728,0.0036242143251,0.00157831807155,-0.0051949606277,-9.83547592163,-0.0766882300377,0.00287145399489,-0.00170916318893,-0.00157207250595;
2537694299890,0.999991834164,0.00090933177853,0.00362294656225,0.00157551083248,-0.00479756575078,-9.8028717041,-0.0784686207771,0.00101029884536,0.00225901603699,-0.0038981444668;
2537696392390,0.999991834164,0.000908083689865,0.0036213491112,0.0015742694959,-0.0472120642662,-9.82241630554,-0.0540599673986,0.00127702963073,0.000995397567749,-0.000996887683868;
2537698446860,0.999991893768,0.000910060072783,0.00361203914508,0.00157642015256,-0.022235462442,-9.8473443985,-0.0485850386322,0.0074490904808,-0.00173300504684,0.00156313192565;
2537701577360,0.999991893768,0.000912177260034,0.00361189572141,0.00157825648785,-0.0274717584252,-9.84408283234,-0.0409871563315,0.000116229064588,-0.00147521495819,0.00168830156326;
2537703678540,0.999991893768,0.000910203962121,0.0036107741762,0.00157757895067,-0.0427810810506,-9.842628479,-0.0460762530565,0.000895559845958,0.000546872615814,-0.00157803308684;
2537705689120,0.999991893768,0.000906220462639,0.00360992318019,0.00158258446027,-0.0282873176038,-9.85325622559,-0.0348280370235,0.000672042369843,-0.00399351166561,-0.00320225977339;
2537707760990,0.999991893768,0.000903780804947,0.00360447424464,0.00158961256966,-0.0376760661602,-9.83469581604,-0.0669834762812,0.0043511390686,-0.0056192278862,-0.00197887443937;
2537711919050,0.999991893768,0.000894915428944,0.0036091839429,0.00159557396546,-0.00964299030602,-9.81254577637,-0.0305685512722,-0.00378340482712,-0.00474005984142,-0.00710338400677;
2537713978870,0.999991893768,0.000890719296876,0.00361446593888,0.00159909192007,0.0106438137591,-9.79351425171,-0.0572586096823,-0.00423342036083,-0.0027984380722,-0.00336021208204;
2537716107220,0.999991774559,0.000896345998626,0.00361747387797,0.00160087307449,-0.00663737300783,-9.79908657074,-0.117050789297,-0.00240057730116,-0.00143945217133,0.00450015068054;
2537718132930,0.999991774559,0.000894063792657,0.00362125318497,0.00160295411479,0.0115837259218,-9.80708408356,-0.126680493355,-0.00302791595459,-0.00165551900864,-0.00182688247878;
2537722154070,0.999991774559,0.000890667492058,0.0036198257003,0.00160421314649,0.00295702856965,-9.7702922821,-0.11788213253,0.00113695859909,-0.000998377916403,-0.00272244238295;
2537724188170,0.999991774559,0.0008838159265,0.00362019357271,0.00159956305288,-0.00459184870124,-9.78620624542,-0.111283294857,-0.000299513427308,0.00374019192532,-0.00546723650768;
2537726391680,0.999991774559,0.000877011974808,0.00362137844786,0.00159762729891,-0.000999247306027,-9.78329181671,-0.0732655525208,-0.000955164607149,0.00156909250654,-0.00543594360352;
2537728283860,0.999991774559,0.000874232558999,0.00362469931133,0.00160570733715,-0.0102343047038,-9.82085418701,-0.0994679480791,-0.00266581727192,-0.00645369198173,-0.00224262452684;
2537731404100,0.999991774559,0.000869601208251,0.00362833566032,0.00160509021953,-0.0345868691802,-9.83117675781,-0.164985820651,-0.00291466736235,0.00050961971283,-0.00369846820831;
2537734067850,0.999991774559,0.000867518770974,0.00363051891327,0.00160350708757,-0.0220184363425,-9.83471298218,-0.146497622132,-0.00174790632445,0.00127404928207,-0.00165849935729;
2537735959840,0.999991774559,0.000867903640028,0.00362492282875,0.00160085235257,0.0117053193972,-9.83598995209,-0.11146967113,0.00447928952053,0.00211894512177,0.000308454036713;
2537738025640,0.999991774559,0.000864752044436,0.00362077308819,0.00160572177265,0.00717840809375,-9.82818031311,-0.0834069103003,0.00331252836622,-0.00388920377009,-0.00254064798355;
2537742244620,0.999991774559,0.000866087619215,0.00361787667498,0.00161062623374,-0.0372085087001,-9.84981060028,-0.128378689289,0.00231564068235,-0.00392943620682,0.00105053163134;
2537744660800,0.999991774559,0.000865342619363,0.00361184473149,0.00161260936875,-0.0290308501571,-9.85264968872,-0.129813238978,0.00482350634411,-0.00158846378326,-0.000609457551036;
2537746454760,0.999991834164,0.000854517042171,0.00361037952825,0.00161512638442,0.00151851994451,-9.85684394836,-0.0920606926084,0.00115633022506,-0.0019833445549,-0.00866949558258;
2537748531070,0.999991834164,0.000852286291774,0.0036027985625,0.00161762209609,-0.00279322592542,-9.84599113464,-0.0781295970082,0.00606030225754,-0.00199526548386,-0.00180155050475;
2537751802060,0.999991834164,0.000854089215863,0.00359994661994,0.00162356253713,-0.0152407940477,-9.82897281647,-0.0604782700539,0.00227987766266,-0.00475943135098,0.00142157089431;
2537753784530,0.999991834164,0.00085764209507,0.00359579152428,0.0016302090371,-0.0112870810553,-9.79282283783,-0.0375349484384,0.00332444929518,-0.00533014535904,0.00281780981459;
2537755864060,0.999991834164,0.000859194609802,0.00358722056262,0.00163643772248,0.00360582815483,-9.79335308075,-0.028549740091,0.00685453414917,-0.0049933786504,0.00121295463759;
2537757939140,0.999991834164,0.000854135490954,0.00358508853242,0.00163906544913,-0.0199937522411,-9.78777980804,-0.0603021122515,0.00169724214356,-0.00208914256655,-0.00405758526176;
2537762076800,0.999991834164,0.000853968434967,0.00358333741315,0.00164156989194,-0.0201671477407,-9.82865142822,-0.089932769537,0.0013992190361,-0.0020042064134,-0.000143051162013;
2537764152480,0.999991834164,0.000852832687087,0.00358474976383,0.00164341728669,-0.0169474668801,-9.76603031158,-0.0778414532542,-0.00113248836715,-0.00147372484207,-0.000911951123271;
2537766225730,0.999991834164,0.000856037717313,0.00358664384112,0.00164362532087,-0.0180455800146,-9.79561233521,-0.0465763024986,-0.00151097786147,-0.000174343585968,0.00256597995758;
2537768365260,0.999991834164,0.000856246391777,0.00358660053462,0.00164675759152,-0.0246450714767,-9.80264568329,-0.10214946419,3.27825473505E-05,-0.00250637531281,0.000157952294103;
2537771540080,0.999991834164,0.000856347032823,0.00358819356188,0.00165115634445,-0.0446172207594,-9.84322452545,-0.16161327064,-0.00127702951431,-0.0035181643907,7.0035464887E-05;
2537773479030,0.999991834164,0.000853592879139,0.00358749111183,0.0016614269698,-0.0129598975182,-9.81552028656,-0.146971270442,0.00055134302238,-0.00820904970169,-0.00223368429579;
2537776637770,0.999991774559,0.000854176585563,0.00358218629844,0.00166491093114,-0.0326213985682,-9.82962417603,-0.0912157967687,0.00424236198887,-0.00279247807339,0.000450015126262;
2537778661210,0.999991774559,0.000850078067742,0.00357404910028,0.00166511058342,-0.0361052937806,-9.8146276474,-0.103474967182,0.00650435686111,-0.000153481960297,-0.00329017662443;
2537780702990,0.999991774559,0.000848279683851,0.00356918713078,0.00166885880753,-0.0390836969018,-9.80208110809,-0.112467862666,0.00388473295607,-0.00299662305042,-0.00145584321581;
2537783299600,0.999991774559,0.00084480951773,0.00356375263073,0.00167677912395,-0.0428840443492,-9.83027362823,-0.119680166245,0.00433772802353,-0.00633001467213,-0.0028058886528;
2537786621610,0.999991834164,0.000842863228172,0.0035601016134,0.00167771987617,-0.0159655846655,-9.83276557922,-0.106072217226,0.00291764689609,-0.000749528466258,-0.00156462204177;
2537788487420,0.999991834164,0.000844719004817,0.00355414696969,0.00168136099819,-0.0279852040112,-9.79412937164,-0.0935101211071,0.00476390123367,-0.00292211771011,0.00146627437789;
2537792410480,0.999991893768,0.000843693618663,0.00354199623689,0.0016889894614,-0.0102793704718,-9.82907009125,-0.0508900098503,0.00971406791359,-0.00610798597336,-0.000858306884766;
